#Typical Measured Spectrum of Semrock FF552-Di02 Optical Filter	
#For wavelengths between 320 and 1120 nm, values near or below 3e-7 (Optical Density 6.5) are measurement noise limited.
#For wavelengths < 320 nm and > 1120 nm, values near or below 3e-6 (Optical Density 5.5) are measurement noise limited. 
#Data format:  Wavelength (nm) <tab> Transmission (0 to 1)

340.0	0.00184
340.2	0.00198
340.4	0.00236
340.6	0.00281
340.8	0.004
341.0	0.00644
341.2	0.01101
341.4	0.01769
341.6	0.02566
341.8	0.03387
342.0	0.04146
342.2	0.04894
342.4	0.05822
342.6	0.07062
342.8	0.09205
343.0	0.12317
343.2	0.16504
343.4	0.20797
343.6	0.24712
343.8	0.27663
344.0	0.29406
344.2	0.3004
344.4	0.28853
344.6	0.26373
344.8	0.23438
345.0	0.20485
345.2	0.17586
345.4	0.14535
345.6	0.11485
345.8	0.08687
346.0	0.06474
346.2	0.04965
346.4	0.04035
346.6	0.03561
346.8	0.03302
347.0	0.0321
347.2	0.03174
347.4	0.03057
347.6	0.02911
347.8	0.02714
348.0	0.02497
348.2	0.02149
348.4	0.01854
348.6	0.01546
348.8	0.01352
349.0	0.01176
349.2	0.01112
349.4	0.01067
349.6	0.01074
349.8	0.0116
350.0	0.01289
350.2	0.01401
350.4	0.01547
350.6	0.01647
350.8	0.01677
351.0	0.01653
351.2	0.01553
351.4	0.01393
351.6	0.0124
351.8	0.01079
352.0	0.00957
352.2	0.00874
352.4	0.00843
352.6	0.00858
352.8	0.00947
353.0	0.0104
353.2	0.01229
353.4	0.01395
353.6	0.01561
353.8	0.0166
354.0	0.01781
354.2	0.01771
354.4	0.01722
354.6	0.01621
354.8	0.01439
355.0	0.0129
355.2	0.01204
355.4	0.01141
355.6	0.01165
355.8	0.01261
356.0	0.01341
356.2	0.01445
356.4	0.01479
356.6	0.01499
356.8	0.01417
357.0	0.01307
357.2	0.01138
357.4	0.00955
357.6	0.00757
357.8	0.00592
358.0	0.0051
358.2	0.00441
358.4	0.00408
358.6	0.0038
358.8	0.00386
359.0	0.00394
359.2	0.00401
359.4	0.00397
359.6	0.00376
359.8	0.0037
360.0	0.00336
360.2	0.00298
360.4	0.00264
360.6	0.00219
360.8	0.00179
361.0	0.00162
361.2	0.00135
361.4	0.0012
361.6	0.00105
361.8	0.00107
362.0	0.00103
362.2	0.00108
362.4	0.00124
362.6	0.00119
362.8	0.00139
363.0	0.00162
363.2	0.00156
363.4	0.00155
363.6	0.00149
363.8	0.0015
364.0	0.00141
364.2	0.00135
364.4	0.00113
364.6	9.3984e-04
364.8	8.8466e-04
365.0	7.4202e-04
365.2	8.8614e-04
365.4	8.3449e-04
365.6	9.843e-04
365.8	9.0913e-04
366.0	0.00125
366.2	0.00108
366.4	0.00133
366.6	0.00117
366.8	0.00116
367.0	0.00159
367.2	0.00163
367.4	0.00174
367.6	0.00145
367.8	0.00134
368.0	0.00134
368.2	0.00111
368.4	9.9483e-04
368.6	9.7531e-04
368.8	9.3288e-04
369.0	9.2799e-04
369.2	0.00105
369.4	9.3638e-04
369.6	9.0941e-04
369.8	0.00107
370.0	0.00107
370.2	0.00129
370.4	0.00136
370.6	0.00146
370.8	0.0014
371.0	0.00134
371.2	0.00139
371.4	0.00124
371.6	0.00115
371.8	0.00102
372.0	0.00107
372.2	0.00103
372.4	8.72e-04
372.6	7.0201e-04
372.8	7.7856e-04
373.0	5.6493e-04
373.2	6.7696e-04
373.4	6.5126e-04
373.6	7.2352e-04
373.8	8.0954e-04
374.0	8.7422e-04
374.2	9.8142e-04
374.4	0.00131
374.6	0.00121
374.8	0.00109
375.0	0.00128
375.2	0.00133
375.4	0.00118
375.6	0.00103
375.8	0.00115
376.0	0.00112
376.2	9.8109e-04
376.4	0.00108
376.6	8.8029e-04
376.8	7.9376e-04
377.0	9.1033e-04
377.2	8.7362e-04
377.4	8.2897e-04
377.6	0.00112
377.8	0.00119
378.0	0.00123
378.2	0.00132
378.4	0.00157
378.6	0.00167
378.8	0.00173
379.0	0.00192
379.2	0.00192
379.4	0.00179
379.6	0.00183
379.8	0.00166
380.0	0.00161
380.2	0.00153
380.4	0.00136
380.6	0.00122
380.8	0.00132
381.0	0.00122
381.2	0.0015
381.4	0.00156
381.6	0.00161
381.8	0.00187
382.0	0.00201
382.2	0.0022
382.4	0.00211
382.6	0.00206
382.8	0.00186
383.0	0.00177
383.2	0.00155
383.4	0.00123
383.6	0.00105
383.8	7.4838e-04
384.0	6.9618e-04
384.2	6.3115e-04
384.4	7.3388e-04
384.6	6.0045e-04
384.8	6.9242e-04
385.0	7.054e-04
385.2	7.0887e-04
385.4	6.9179e-04
385.6	7.2398e-04
385.8	8.4305e-04
386.0	8.8289e-04
386.2	9.0506e-04
386.4	0.00101
386.6	8.6926e-04
386.8	7.1563e-04
387.0	6.7091e-04
387.2	6.6294e-04
387.4	5.923e-04
387.6	5.1154e-04
387.8	4.8981e-04
388.0	3.446e-04
388.2	4.944e-04
388.4	3.5583e-04
388.6	3.28e-04
388.8	2.5022e-04
389.0	3.5358e-04
389.2	2.9513e-04
389.4	3.7879e-04
389.6	3.5492e-04
389.8	3.7455e-04
390.0	4.0627e-04
390.2	4.0253e-04
390.4	4.9262e-04
390.6	5.2208e-04
390.8	5.1971e-04
391.0	5.3264e-04
391.2	6.8797e-04
391.4	7.924e-04
391.6	6.955e-04
391.8	6.503e-04
392.0	0.00116
392.2	0.00111
392.4	0.0013
392.6	0.00142
392.8	0.00107
393.0	0.00125
393.2	9.689e-04
393.4	0.00102
393.6	9.4153e-04
393.8	9.3661e-04
394.0	9.9341e-04
394.2	0.00117
394.4	0.00102
394.6	9.8329e-04
394.8	0.0011
395.0	0.00134
395.2	0.00136
395.4	0.00101
395.6	0.00125
395.8	0.00131
396.0	0.0018
396.2	0.00164
396.4	0.00191
396.6	0.00218
396.8	0.0019
397.0	0.00229
397.2	0.00209
397.4	0.00213
397.6	0.0021
397.8	0.00188
398.0	0.00171
398.2	0.00185
398.4	0.0017
398.6	0.00156
398.8	0.00138
399.0	0.00159
399.2	0.00166
399.4	0.00172
399.6	0.00209
399.8	0.00201
400.0	0.00247
400.2	0.00269
400.4	0.00348
400.6	0.0037
400.8	0.00411
401.0	0.00441
401.2	0.00445
401.4	0.00448
401.6	0.00455
401.8	0.0042
402.0	0.00355
402.2	0.00338
402.4	0.00322
402.6	0.00284
402.8	0.00256
403.0	0.00209
403.2	0.00221
403.4	0.00204
403.6	0.00212
403.8	0.00216
404.0	0.00202
404.2	0.0023
404.4	0.00273
404.6	0.00297
404.8	0.00371
405.0	0.00459
405.2	0.00572
405.4	0.00774
405.6	0.00991
405.8	0.01223
406.0	0.01422
406.2	0.01565
406.4	0.01677
406.6	0.01693
406.8	0.01669
407.0	0.01558
407.2	0.01411
407.4	0.01216
407.6	0.01014
407.8	0.00851
408.0	0.0073
408.2	0.00675
408.4	0.00616
408.6	0.00552
408.8	0.00531
409.0	0.00543
409.2	0.00507
409.4	0.00531
409.6	0.00543
409.8	0.00538
410.0	0.00544
410.2	0.00571
410.4	0.00557
410.6	0.00566
410.8	0.00587
411.0	0.0059
411.2	0.00572
411.4	0.00583
411.6	0.0059
411.8	0.00576
412.0	0.00571
412.2	0.006
412.4	0.00584
412.6	0.00597
412.8	0.00602
413.0	0.00625
413.2	0.00641
413.4	0.00667
413.6	0.00698
413.8	0.0073
414.0	0.00734
414.2	0.00779
414.4	0.00802
414.6	0.0084
414.8	0.00852
415.0	0.00836
415.2	0.00835
415.4	0.0084
415.6	0.00833
415.8	0.00813
416.0	0.00794
416.2	0.0078
416.4	0.00776
416.6	0.00755
416.8	0.00747
417.0	0.00737
417.2	0.00725
417.4	0.00743
417.6	0.00765
417.8	0.00778
418.0	0.00806
418.2	0.00848
418.4	0.00886
418.6	0.0095
418.8	0.01042
419.0	0.01087
419.2	0.01165
419.4	0.01244
419.6	0.01322
419.8	0.01409
420.0	0.01496
420.2	0.01563
420.4	0.0161
420.6	0.01663
420.8	0.01715
421.0	0.01743
421.2	0.01745
421.4	0.01754
421.6	0.01747
421.8	0.01714
422.0	0.01696
422.2	0.01712
422.4	0.01681
422.6	0.01674
422.8	0.01663
423.0	0.01649
423.2	0.0167
423.4	0.01677
423.6	0.01693
423.8	0.01723
424.0	0.0176
424.2	0.01827
424.4	0.01866
424.6	0.01886
424.8	0.01975
425.0	0.02026
425.2	0.02066
425.4	0.0214
425.6	0.02162
425.8	0.02193
426.0	0.02191
426.2	0.02181
426.4	0.02141
426.6	0.02092
426.8	0.0202
427.0	0.0197
427.2	0.01882
427.4	0.0179
427.6	0.01704
427.8	0.01598
428.0	0.015
428.2	0.01421
428.4	0.01342
428.6	0.01274
428.8	0.01199
429.0	0.01169
429.2	0.0113
429.4	0.01107
429.6	0.01083
429.8	0.01072
430.0	0.01082
430.2	0.01074
430.4	0.01083
430.6	0.01118
430.8	0.01136
431.0	0.01163
431.2	0.01186
431.4	0.01215
431.6	0.01239
431.8	0.01255
432.0	0.01256
432.2	0.01258
432.4	0.01244
432.6	0.01218
432.8	0.01195
433.0	0.01151
433.2	0.01106
433.4	0.01064
433.6	0.01013
433.8	0.00973
434.0	0.00929
434.2	0.00879
434.4	0.00853
434.6	0.00823
434.8	0.00807
435.0	0.00789
435.2	0.00778
435.4	0.00772
435.6	0.00778
435.8	0.0079
436.0	0.00796
436.2	0.00828
436.4	0.00851
436.6	0.00876
436.8	0.00916
437.0	0.00964
437.2	0.01003
437.4	0.01037
437.6	0.01074
437.8	0.01115
438.0	0.01127
438.2	0.01143
438.4	0.01173
438.6	0.0116
438.8	0.01164
439.0	0.01157
439.2	0.01134
439.4	0.01103
439.6	0.01086
439.8	0.01067
440.0	0.01022
440.2	0.0101
440.4	0.00984
440.6	0.00962
440.8	0.00951
441.0	0.00935
441.2	0.00949
441.4	0.00945
441.6	0.00949
441.8	0.00978
442.0	0.00994
442.2	0.01041
442.4	0.01071
442.6	0.01106
442.8	0.01173
443.0	0.0124
443.2	0.01307
443.4	0.0139
443.6	0.01469
443.8	0.01563
444.0	0.01655
444.2	0.01738
444.4	0.01835
444.6	0.01918
444.8	0.01983
445.0	0.02043
445.2	0.02094
445.4	0.02129
445.6	0.02159
445.8	0.02173
446.0	0.02158
446.2	0.02136
446.4	0.02112
446.6	0.02087
446.8	0.0203
447.0	0.01977
447.2	0.01942
447.4	0.01892
447.6	0.01847
447.8	0.01801
448.0	0.01755
448.2	0.01724
448.4	0.01679
448.6	0.01659
448.8	0.01631
449.0	0.01618
449.2	0.01601
449.4	0.01585
449.6	0.01602
449.8	0.01611
450.0	0.01618
450.2	0.01628
450.4	0.01643
450.6	0.01668
450.8	0.01682
451.0	0.01703
451.2	0.01727
451.4	0.01735
451.6	0.01736
451.8	0.01725
452.0	0.01719
452.2	0.01677
452.4	0.01647
452.6	0.01607
452.8	0.01543
453.0	0.01468
453.2	0.0141
453.4	0.0132
453.6	0.01237
453.8	0.01155
454.0	0.01083
454.2	0.01015
454.4	0.00929
454.6	0.00875
454.8	0.00826
455.0	0.00785
455.2	0.0073
455.4	0.00709
455.6	0.00685
455.8	0.00664
456.0	0.00651
456.2	0.00638
456.4	0.00644
456.6	0.00654
456.8	0.00674
457.0	0.00706
457.2	0.0075
457.4	0.00799
457.6	0.00872
457.8	0.00949
458.0	0.01051
458.2	0.01139
458.4	0.01246
458.6	0.01347
458.8	0.01432
459.0	0.01515
459.2	0.01579
459.4	0.01623
459.6	0.01649
459.8	0.01644
460.0	0.01623
460.2	0.0159
460.4	0.0155
460.6	0.01506
460.8	0.01419
461.0	0.01358
461.2	0.01296
461.4	0.0123
461.6	0.01182
461.8	0.01131
462.0	0.01087
462.2	0.0104
462.4	0.01022
462.6	0.01001
462.8	0.01002
463.0	0.01019
463.2	0.0104
463.4	0.01089
463.6	0.01169
463.8	0.0125
464.0	0.0136
464.2	0.01467
464.4	0.01583
464.6	0.01701
464.8	0.01798
465.0	0.01892
465.2	0.01976
465.4	0.02055
465.6	0.02117
465.8	0.02147
466.0	0.02177
466.2	0.02195
466.4	0.02194
466.6	0.02165
466.8	0.02137
467.0	0.02114
467.2	0.02084
467.4	0.02025
467.6	0.01977
467.8	0.01915
468.0	0.01843
468.2	0.01777
468.4	0.01687
468.6	0.01614
468.8	0.01569
469.0	0.01524
469.2	0.01476
469.4	0.01448
469.6	0.01439
469.8	0.01426
470.0	0.01425
470.2	0.01447
470.4	0.0146
470.6	0.0149
470.8	0.01539
471.0	0.01594
471.2	0.01653
471.4	0.01712
471.6	0.01787
471.8	0.01846
472.0	0.01916
472.2	0.01972
472.4	0.02003
472.6	0.02042
472.8	0.02056
473.0	0.02034
473.2	0.01992
473.4	0.01927
473.6	0.0185
473.8	0.01739
474.0	0.01648
474.2	0.01524
474.4	0.01411
474.6	0.01298
474.8	0.012
475.0	0.01102
475.2	0.01036
475.4	0.00969
475.6	0.00906
475.8	0.00864
476.0	0.00825
476.2	0.00805
476.4	0.00782
476.6	0.00781
476.8	0.00774
477.0	0.00781
477.2	0.00791
477.4	0.00803
477.6	0.00842
477.8	0.00878
478.0	0.00915
478.2	0.00966
478.4	0.01026
478.6	0.01093
478.8	0.01158
479.0	0.01238
479.2	0.01308
479.4	0.01404
479.6	0.01484
479.8	0.01565
480.0	0.01625
480.2	0.01703
480.4	0.01744
480.6	0.01786
480.8	0.01799
481.0	0.01791
481.2	0.01773
481.4	0.01741
481.6	0.01687
481.8	0.01627
482.0	0.01577
482.2	0.01501
482.4	0.01436
482.6	0.01372
482.8	0.01303
483.0	0.01252
483.2	0.01203
483.4	0.01168
483.6	0.01124
483.8	0.01105
484.0	0.01082
484.2	0.01062
484.4	0.01061
484.6	0.01055
484.8	0.01053
485.0	0.01066
485.2	0.01091
485.4	0.0112
485.6	0.01133
485.8	0.01169
486.0	0.01202
486.2	0.01252
486.4	0.01299
486.6	0.01356
486.8	0.0142
487.0	0.0148
487.2	0.01578
487.4	0.01659
487.6	0.01757
487.8	0.01862
488.0	0.01962
488.2	0.02074
488.4	0.02177
488.6	0.02286
488.8	0.02369
489.0	0.02445
489.2	0.02487
489.4	0.02508
489.6	0.02503
489.8	0.02444
490.0	0.02381
490.2	0.02283
490.4	0.02148
490.6	0.02011
490.8	0.01842
491.0	0.01679
491.2	0.01508
491.4	0.01344
491.6	0.01199
491.8	0.01052
492.0	0.00924
492.2	0.0082
492.4	0.00716
492.6	0.00642
492.8	0.00574
493.0	0.00529
493.2	0.00477
493.4	0.0043
493.6	0.00402
493.8	0.00377
494.0	0.00355
494.2	0.00341
494.4	0.00336
494.6	0.00326
494.8	0.00324
495.0	0.00329
495.2	0.00328
495.4	0.00343
495.6	0.00342
495.8	0.00349
496.0	0.00359
496.2	0.00372
496.4	0.00374
496.6	0.00382
496.8	0.00387
497.0	0.00393
497.2	0.00411
497.4	0.00428
497.6	0.00442
497.8	0.00463
498.0	0.005
498.2	0.00539
498.4	0.00587
498.6	0.00637
498.8	0.00682
499.0	0.00726
499.2	0.00773
499.4	0.00796
499.6	0.00809
499.8	0.00821
500.0	0.00802
500.2	0.0078
500.4	0.00745
500.6	0.00701
500.8	0.00651
501.0	0.00585
501.2	0.00534
501.4	0.00479
501.6	0.00433
501.8	0.00386
502.0	0.00354
502.2	0.00324
502.4	0.00308
502.6	0.00296
502.8	0.00286
503.0	0.0027
503.2	0.00267
503.4	0.00258
503.6	0.00254
503.8	0.00241
504.0	0.00233
504.2	0.00224
504.4	0.00225
504.6	0.00211
504.8	0.00209
505.0	0.00196
505.2	0.00188
505.4	0.00187
505.6	0.00183
505.8	0.00189
506.0	0.00197
506.2	0.00216
506.4	0.00227
506.6	0.00255
506.8	0.00287
507.0	0.00328
507.2	0.00389
507.4	0.00475
507.6	0.00569
507.8	0.00699
508.0	0.00823
508.2	0.00961
508.4	0.01072
508.6	0.01162
508.8	0.0123
509.0	0.01269
509.2	0.01271
509.4	0.01248
509.6	0.01191
509.8	0.01118
510.0	0.01005
510.2	0.00875
510.4	0.00734
510.6	0.00608
510.8	0.00488
511.0	0.00395
511.2	0.00318
511.4	0.00259
511.6	0.00222
511.8	0.00188
512.0	0.00168
512.2	0.00154
512.4	0.00135
512.6	0.00124
512.8	0.00122
513.0	0.00119
513.2	0.00104
513.4	0.00103
513.6	0.00104
513.8	9.9421e-04
514.0	9.649e-04
514.2	9.7495e-04
514.4	9.6449e-04
514.6	8.8333e-04
514.8	9.4088e-04
515.0	9.2262e-04
515.2	9.6774e-04
515.4	9.6121e-04
515.6	9.4613e-04
515.8	9.8896e-04
516.0	0.00104
516.2	0.00108
516.4	0.00114
516.6	0.0012
516.8	0.00127
517.0	0.00131
517.2	0.0014
517.4	0.00149
517.6	0.00167
517.8	0.00178
518.0	0.00201
518.2	0.00225
518.4	0.0026
518.6	0.00293
518.8	0.00334
519.0	0.00381
519.2	0.00436
519.4	0.00485
519.6	0.00537
519.8	0.00585
520.0	0.00633
520.2	0.00668
520.4	0.00688
520.6	0.00715
520.8	0.00725
521.0	0.00729
521.2	0.00712
521.4	0.007
521.6	0.00665
521.8	0.00628
522.0	0.00584
522.2	0.00537
522.4	0.00488
522.6	0.0044
522.8	0.00397
523.0	0.00357
523.2	0.00322
523.4	0.00291
523.6	0.00266
523.8	0.00248
524.0	0.00226
524.2	0.0022
524.4	0.00205
524.6	0.00201
524.8	0.00192
525.0	0.00191
525.2	0.00182
525.4	0.00185
525.6	0.00181
525.8	0.00174
526.0	0.00174
526.2	0.00174
526.4	0.00171
526.6	0.00175
526.8	0.00181
527.0	0.00186
527.2	0.00192
527.4	0.00206
527.6	0.00214
527.8	0.00224
528.0	0.00235
528.2	0.00238
528.4	0.00248
528.6	0.00252
528.8	0.00261
529.0	0.00256
529.2	0.00265
529.4	0.00266
529.6	0.00265
529.8	0.00261
530.0	0.00258
530.2	0.00258
530.4	0.00258
530.6	0.0026
530.8	0.00267
531.0	0.00268
531.2	0.0027
531.4	0.00274
531.6	0.00278
531.8	0.00275
532.0	0.00274
532.2	0.0028
532.4	0.00276
532.6	0.00274
532.8	0.00274
533.0	0.00272
533.2	0.00275
533.4	0.00275
533.6	0.00273
533.8	0.0027
534.0	0.00271
534.2	0.00271
534.4	0.00269
534.6	0.00269
534.8	0.00271
535.0	0.00276
535.2	0.00271
535.4	0.00279
535.6	0.00282
535.8	0.00282
536.0	0.00291
536.2	0.00302
536.4	0.00312
536.6	0.00326
536.8	0.00332
537.0	0.00349
537.2	0.00361
537.4	0.00376
537.6	0.00392
537.8	0.00401
538.0	0.00396
538.2	0.00388
538.4	0.00391
538.6	0.00401
538.8	0.00407
539.0	0.00425
539.2	0.00437
539.4	0.00465
539.6	0.00484
539.8	0.00513
540.0	0.00539
540.2	0.00579
540.4	0.00612
540.6	0.00662
540.8	0.00705
541.0	0.0076
541.2	0.00819
541.4	0.00889
541.6	0.00974
541.8	0.01057
542.0	0.01161
542.2	0.01268
542.4	0.01404
542.6	0.01557
542.8	0.01734
543.0	0.02101
543.2	0.02502
543.4	0.02749
543.6	0.03043
543.8	0.03377
544.0	0.03754
544.2	0.04186
544.4	0.04707
544.6	0.05302
544.8	0.06012
545.0	0.06785
545.2	0.07683
545.4	0.08715
545.6	0.09878
545.8	0.11171
546.0	0.12603
546.2	0.14226
546.4	0.15966
546.6	0.17814
546.8	0.19789
547.0	0.21843
547.2	0.24073
547.4	0.26295
547.6	0.28466
547.8	0.307
548.0	0.32886
548.2	0.34921
548.4	0.36889
548.6	0.38616
548.8	0.40328
549.0	0.41792
549.2	0.43098
549.4	0.44029
549.6	0.45065
549.8	0.45982
550.0	0.46507
550.2	0.46996
550.4	0.47314
550.6	0.47554
550.8	0.47789
551.0	0.47977
551.2	0.48106
551.4	0.48237
551.6	0.48558
551.8	0.48839
552.0	0.49363
552.2	0.49929
552.4	0.50577
552.6	0.51497
552.8	0.52635
553.0	0.54023
553.2	0.5578
553.4	0.57704
553.6	0.5995
553.8	0.62502
554.0	0.65108
554.2	0.67998
554.4	0.71016
554.6	0.73914
554.8	0.76912
555.0	0.79759
555.2	0.8266
555.4	0.85418
555.6	0.87836
555.8	0.90138
556.0	0.92044
556.2	0.9379
556.4	0.95001
556.6	0.96048
556.8	0.96643
557.0	0.97197
557.2	0.97499
557.4	0.9798
557.6	0.98084
557.8	0.98289
558.0	0.98615
558.2	0.98873
558.4	0.99047
558.6	0.98985
558.8	0.9917
559.0	0.99165
559.2	0.99254
559.4	0.99198
559.6	0.99537
559.8	0.99369
560.0	0.99326
560.2	0.9941
560.4	0.99592
560.6	0.99447
560.8	0.99566
561.0	0.99743
561.2	0.9951
561.4	0.99195
561.6	0.99129
561.8	0.99216
562.0	0.99022
562.2	0.9904
562.4	0.9903
562.6	0.9907
562.8	0.98969
563.0	0.99115
563.2	0.99052
563.4	0.98714
563.6	0.98735
563.8	0.98843
564.0	0.98569
564.2	0.98428
564.4	0.98171
564.6	0.98193
564.8	0.98286
565.0	0.982
565.2	0.98149
565.4	0.98091
565.6	0.97912
565.8	0.9771
566.0	0.97667
566.2	0.97571
566.4	0.97412
566.6	0.97564
566.8	0.97498
567.0	0.97398
567.2	0.97556
567.4	0.9748
567.6	0.97077
567.8	0.96972
568.0	0.97127
568.2	0.97128
568.4	0.97244
568.6	0.9709
568.8	0.97099
569.0	0.97028
569.2	0.97132
569.4	0.97067
569.6	0.97035
569.8	0.97222
570.0	0.97263
570.2	0.97389
570.4	0.97342
570.6	0.97263
570.8	0.97496
571.0	0.97617
571.2	0.97715
571.4	0.97875
571.6	0.97902
571.8	0.98067
572.0	0.98078
572.2	0.9823
572.4	0.983
572.6	0.98376
572.8	0.98508
573.0	0.98642
573.2	0.98581
573.4	0.98625
573.6	0.98582
573.8	0.9856
574.0	0.98518
574.2	0.98521
574.4	0.98666
574.6	0.98598
574.8	0.98549
575.0	0.98908
575.2	0.98627
575.4	0.98537
575.6	0.98697
575.8	0.98831
576.0	0.98754
576.2	0.98633
576.4	0.98645
576.6	0.98702
576.8	0.98781
577.0	0.98741
577.2	0.98655
577.4	0.98395
577.6	0.98246
577.8	0.98215
578.0	0.9841
578.2	0.98455
578.4	0.98395
578.6	0.98206
578.8	0.98226
579.0	0.97954
579.2	0.97829
579.4	0.97962
579.6	0.98159
579.8	0.98108
580.0	0.97966
580.2	0.9794
580.4	0.97888
580.6	0.98088
580.8	0.97988
581.0	0.98002
581.2	0.98009
581.4	0.97873
581.6	0.97846
581.8	0.97937
582.0	0.98147
582.2	0.98288
582.4	0.98032
582.6	0.98224
582.8	0.98369
583.0	0.98378
583.2	0.98358
583.4	0.98473
583.6	0.98326
583.8	0.98548
584.0	0.98592
584.2	0.98621
584.4	0.98763
584.6	0.98841
584.8	0.98602
585.0	0.98636
585.2	0.98658
585.4	0.98704
585.6	0.98737
585.8	0.98904
586.0	0.98874
586.2	0.98631
586.4	0.98842
586.6	0.98983
586.8	0.99063
587.0	0.99007
587.2	0.98699
587.4	0.98795
587.6	0.98919
587.8	0.99082
588.0	0.99016
588.2	0.98971
588.4	0.9898
588.6	0.98891
588.8	0.98783
589.0	0.98692
589.2	0.98748
589.4	0.99019
589.6	0.98924
589.8	0.98928
590.0	0.98903
590.2	0.98993
590.4	0.99092
590.6	0.9897
590.8	0.9892
591.0	0.98963
591.2	0.9887
591.4	0.98938
591.6	0.98901
591.8	0.99141
592.0	0.99293
592.2	0.99198
592.4	0.99269
592.6	0.98945
592.8	0.99223
593.0	0.99576
593.2	0.99423
593.4	0.99385
593.6	0.9936
593.8	0.99232
594.0	0.99059
594.2	0.99016
594.4	0.99097
594.6	0.98757
594.8	0.98826
595.0	0.9879
595.2	0.98814
595.4	0.99025
595.6	0.98752
595.8	0.98766
596.0	0.98838
596.2	0.98918
596.4	0.99087
596.6	0.99056
596.8	0.99165
597.0	0.99061
597.2	0.99078
597.4	0.98874
597.6	0.98894
597.8	0.98954
598.0	0.98927
598.2	0.98956
598.4	0.989
598.6	0.99049
598.8	0.99068
599.0	0.9893
599.2	0.98791
599.4	0.9881
599.6	0.9903
599.8	0.99014
600.0	0.98778
600.2	0.98765
600.4	0.99056
600.6	0.98909
600.8	0.9882
601.0	0.98961
601.2	0.99114
601.4	0.9907
601.6	0.99211
601.8	0.99114
602.0	0.98895
602.2	0.99006
602.4	0.99169
602.6	0.98851
602.8	0.98886
603.0	0.99005
603.2	0.98849
603.4	0.98882
603.6	0.98745
603.8	0.98708
604.0	0.98654
604.2	0.98653
604.4	0.98757
604.6	0.98553
604.8	0.9849
605.0	0.98397
605.2	0.98117
605.4	0.98072
605.6	0.98082
605.8	0.97942
606.0	0.97927
606.2	0.97943
606.4	0.98187
606.6	0.9813
606.8	0.97916
607.0	0.98006
607.2	0.98121
607.4	0.98121
607.6	0.9785
607.8	0.97866
608.0	0.97883
608.2	0.97931
608.4	0.97988
608.6	0.98173
608.8	0.98083
609.0	0.98159
609.2	0.98301
609.4	0.98556
609.6	0.98437
609.8	0.98458
610.0	0.98387
610.2	0.98469
610.4	0.98385
610.6	0.98441
610.8	0.98482
611.0	0.98615
611.2	0.98667
611.4	0.98732
611.6	0.98714
611.8	0.98722
612.0	0.9857
612.2	0.98663
612.4	0.98392
612.6	0.98281
612.8	0.98563
613.0	0.98591
613.2	0.9849
613.4	0.98324
613.6	0.98608
613.8	0.98766
614.0	0.98783
614.2	0.98702
614.4	0.98241
614.6	0.97938
614.8	0.98028
615.0	0.98184
615.2	0.98322
615.4	0.98376
615.6	0.98484
615.8	0.98471
616.0	0.98331
616.2	0.98185
616.4	0.98167
616.6	0.98503
616.8	0.98214
617.0	0.97902
617.2	0.97895
617.4	0.98011
617.6	0.98181
617.8	0.98069
618.0	0.98079
618.2	0.98115
618.4	0.98009
618.6	0.98035
618.8	0.98047
619.0	0.98244
619.2	0.98422
619.4	0.98382
619.6	0.98391
619.8	0.9825
620.0	0.98284
620.2	0.98323
620.4	0.98471
620.6	0.98655
620.8	0.98729
621.0	0.98862
621.2	0.98826
621.4	0.98782
621.6	0.98682
621.8	0.98565
622.0	0.98684
622.2	0.9863
622.4	0.985
622.6	0.98566
622.8	0.98467
623.0	0.98421
623.2	0.98387
623.4	0.98436
623.6	0.98427
623.8	0.98663
624.0	0.9845
624.2	0.98421
624.4	0.98584
624.6	0.98435
624.8	0.98334
625.0	0.98178
625.2	0.98004
625.4	0.97835
625.6	0.97907
625.8	0.97829
626.0	0.97815
626.2	0.97765
626.4	0.97847
626.6	0.98049
626.8	0.98183
627.0	0.98105
627.2	0.98006
627.4	0.97946
627.6	0.97881
627.8	0.97707
628.0	0.97721
628.2	0.97762
628.4	0.97697
628.6	0.97879
628.8	0.97908
629.0	0.97724
629.2	0.97707
629.4	0.97826
629.6	0.97899
629.8	0.97781
630.0	0.97706
630.2	0.98007
630.4	0.97863
630.6	0.97899
630.8	0.98248
631.0	0.98309
631.2	0.98408
631.4	0.98406
631.6	0.98445
631.8	0.98442
632.0	0.9849
632.2	0.98837
632.4	0.98844
632.6	0.98944
632.8	0.98839
633.0	0.98852
633.2	0.99074
633.4	0.99136
633.6	0.98925
633.8	0.98812
634.0	0.98857
634.2	0.99103
634.4	0.99314
634.6	0.99305
634.8	0.99304
635.0	0.99292
635.2	0.99345
635.4	0.99368
635.6	0.9936
635.8	0.99275
636.0	0.99216
636.2	0.99267
636.4	0.98997
636.6	0.98931
636.8	0.9911
637.0	0.99136
637.2	0.99144
637.4	0.98746
637.6	0.98657
637.8	0.9874
638.0	0.98861
638.2	0.98765
638.4	0.98627
638.6	0.9859
638.8	0.98633
639.0	0.98363
639.2	0.98504
639.4	0.98506
639.6	0.98563
639.8	0.98489
640.0	0.98472
640.2	0.98362
640.4	0.98352
640.6	0.98406
640.8	0.98337
641.0	0.98408
641.2	0.98418
641.4	0.9835
641.6	0.98215
641.8	0.98077
642.0	0.97994
642.2	0.98085
642.4	0.98332
642.6	0.98563
642.8	0.985
643.0	0.9834
643.2	0.98479
643.4	0.98548
643.6	0.98588
643.8	0.9848
644.0	0.98327
644.2	0.98165
644.4	0.98044
644.6	0.97959
644.8	0.97977
645.0	0.98188
645.2	0.98186
645.4	0.98142
645.6	0.98158
645.8	0.9817
646.0	0.98351
646.2	0.98294
646.4	0.98356
646.6	0.98231
646.8	0.98306
647.0	0.9838
647.2	0.98203
647.4	0.9813
647.6	0.98211
647.8	0.98046
648.0	0.98161
648.2	0.98303
648.4	0.98282
648.6	0.9833
648.8	0.98618
649.0	0.98384
649.2	0.98778
649.4	0.98694
649.6	0.98703
649.8	0.98881
650.0	0.98768
650.2	0.98643
650.4	0.9878
650.6	0.98821
650.8	0.99017
651.0	0.99338
651.2	0.99458
651.4	0.99403
651.6	0.99397
651.8	0.99271
652.0	0.98861
652.2	0.98876
652.4	0.98877
652.6	0.99037
652.8	0.99156
653.0	0.98876
653.2	0.98965
653.4	0.99092
653.6	0.9918
653.8	0.9925
654.0	0.99287
654.2	0.99132
654.4	0.99124
654.6	0.99134
654.8	0.99216
655.0	0.9904
655.2	0.98941
655.4	0.98951
655.6	0.99019
655.8	0.98914
656.0	0.98641
656.2	0.98638
656.4	0.98942
656.6	0.99155
656.8	0.98951
657.0	0.98999
657.2	0.98954
657.4	0.98806
657.6	0.98738
657.8	0.98685
658.0	0.98422
658.2	0.98624
658.4	0.98562
658.6	0.98635
658.8	0.9845
659.0	0.98507
659.2	0.98368
659.4	0.98239
659.6	0.98022
659.8	0.97931
660.0	0.9814
660.2	0.98214
660.4	0.98153
660.6	0.9804
660.8	0.98122
661.0	0.9809
661.2	0.98122
661.4	0.98155
661.6	0.98186
661.8	0.98052
662.0	0.97885
662.2	0.97956
662.4	0.9795
662.6	0.97834
662.8	0.9796
663.0	0.9767
663.2	0.97574
663.4	0.97763
663.6	0.9763
663.8	0.97704
664.0	0.97658
664.2	0.97876
664.4	0.97855
664.6	0.97804
664.8	0.97755
665.0	0.97735
665.2	0.97654
665.4	0.97614
665.6	0.97828
665.8	0.97803
666.0	0.97636
666.2	0.9769
666.4	0.97907
666.6	0.9783
666.8	0.97779
667.0	0.97881
667.2	0.98065
667.4	0.97911
667.6	0.97947
667.8	0.98144
668.0	0.98216
668.2	0.98464
668.4	0.98441
668.6	0.9817
668.8	0.98132
669.0	0.98106
669.2	0.9832
669.4	0.98432
669.6	0.98565
669.8	0.98287
670.0	0.98558
670.2	0.98727
670.4	0.98658
670.6	0.98451
670.8	0.98418
671.0	0.98561
671.2	0.98434
671.4	0.9855
671.6	0.98664
671.8	0.9841
672.0	0.98297
672.2	0.98173
672.4	0.98157
672.6	0.98333
672.8	0.98487
673.0	0.98246
673.2	0.98181
673.4	0.98351
673.6	0.98365
673.8	0.98469
674.0	0.98417
674.2	0.9856
674.4	0.98696
674.6	0.98747
674.8	0.98717
675.0	0.98781
675.2	0.98671
675.4	0.98256
675.6	0.98262
675.8	0.98362
676.0	0.98297
676.2	0.98359
676.4	0.98396
676.6	0.98167
676.8	0.9809
677.0	0.98299
677.2	0.9833
677.4	0.98238
677.6	0.98184
677.8	0.98088
678.0	0.98032
678.2	0.98
678.4	0.98001
678.6	0.98036
678.8	0.97926
679.0	0.97976
679.2	0.98354
679.4	0.98363
679.6	0.9855
679.8	0.98352
680.0	0.98217
680.2	0.98285
680.4	0.98358
680.6	0.98383
680.8	0.98273
681.0	0.98056
681.2	0.97997
681.4	0.97884
681.6	0.97999
681.8	0.98019
682.0	0.98128
682.2	0.98134
682.4	0.97943
682.6	0.97591
682.8	0.97818
683.0	0.97882
683.2	0.97865
683.4	0.97787
683.6	0.97887
683.8	0.97967
684.0	0.97769
684.2	0.97596
684.4	0.97654
684.6	0.97706
684.8	0.97841
685.0	0.98036
685.2	0.97991
685.4	0.9787
685.6	0.97963
685.8	0.98171
686.0	0.98068
686.2	0.97896
686.4	0.98178
686.6	0.98238
686.8	0.98257
687.0	0.98261
687.2	0.98097
687.4	0.98092
687.6	0.98019
687.8	0.98347
688.0	0.98335
688.2	0.98161
688.4	0.98154
688.6	0.98436
688.8	0.98621
689.0	0.98562
689.2	0.9836
689.4	0.98414
689.6	0.985
689.8	0.98433
690.0	0.98409
690.2	0.98656
690.4	0.98817
690.6	0.98679
690.8	0.98564
691.0	0.98596
691.2	0.98666
691.4	0.9867
691.6	0.98319
691.8	0.98167
692.0	0.98399
692.2	0.98491
692.4	0.98749
692.6	0.98744
692.8	0.98807
693.0	0.98766
693.2	0.9885
693.4	0.98812
693.6	0.98738
693.8	0.98591
694.0	0.98644
694.2	0.98746
694.4	0.9872
694.6	0.98623
694.8	0.98564
695.0	0.98345
695.2	0.98298
695.4	0.98206
695.6	0.98163
695.8	0.98083
696.0	0.9804
696.2	0.98163
696.4	0.98355
696.6	0.98598
696.8	0.98547
697.0	0.98447
697.2	0.98251
697.4	0.98375
697.6	0.98436
697.8	0.98297
698.0	0.98328
698.2	0.98665
698.4	0.98482
698.6	0.98436
698.8	0.98288
699.0	0.98196
699.2	0.9787
699.4	0.98076
699.6	0.98097
699.8	0.98133
700.0	0.98475
700.2	0.98282
700.4	0.98148
700.6	0.9812
700.8	0.98062
701.0	0.9826
701.2	0.98259
701.4	0.98213
701.6	0.98367
701.8	0.98332
702.0	0.98233
702.2	0.98232
702.4	0.98258
702.6	0.98386
702.8	0.98317
703.0	0.98224
703.2	0.98094
703.4	0.98111
703.6	0.98051
703.8	0.98363
704.0	0.98517
704.2	0.98547
704.4	0.98163
704.6	0.98028
704.8	0.98105
705.0	0.9817
705.2	0.98293
705.4	0.98374
705.6	0.98406
705.8	0.9842
706.0	0.98443
706.2	0.98501
706.4	0.98364
706.6	0.98166
706.8	0.98201
707.0	0.98177
707.2	0.98084
707.4	0.98095
707.6	0.98391
707.8	0.98532
708.0	0.98549
708.2	0.98352
708.4	0.98385
708.6	0.98361
708.8	0.9831
709.0	0.9823
709.2	0.98059
709.4	0.98238
709.6	0.98297
709.8	0.98028
710.0	0.98195
710.2	0.98371
710.4	0.98103
710.6	0.97971
710.8	0.9806
711.0	0.97975
711.2	0.97855
711.4	0.98015
711.6	0.98072
711.8	0.97879
712.0	0.97759
712.2	0.97776
712.4	0.97711
712.6	0.9768
712.8	0.97778
713.0	0.97917
713.2	0.97809
713.4	0.97915
713.6	0.97982
713.8	0.97867
714.0	0.97862
714.2	0.97749
714.4	0.97617
714.6	0.97699
714.8	0.97695
715.0	0.97712
715.2	0.9781
715.4	0.97743
715.6	0.97772
715.8	0.97759
716.0	0.97995
716.2	0.98275
716.4	0.98335
716.6	0.98296
716.8	0.98127
717.0	0.9841
717.2	0.98553
717.4	0.98463
717.6	0.98202
717.8	0.98246
718.0	0.98333
718.2	0.98489
718.4	0.98534
718.6	0.98281
718.8	0.98095
719.0	0.98159
719.2	0.9801
719.4	0.97644
719.6	0.97554
719.8	0.97705
720.0	0.97904
720.2	0.97805
720.4	0.98044
720.6	0.9812
720.8	0.98075
721.0	0.97838
721.2	0.97674
721.4	0.97487
721.6	0.97604
721.8	0.97769
722.0	0.9808
722.2	0.97957
722.4	0.98188
722.6	0.98157
722.8	0.98144
723.0	0.98322
723.2	0.98419
723.4	0.98393
723.6	0.9838
723.8	0.98243
724.0	0.98176
724.2	0.98193
724.4	0.97933
724.6	0.97807
724.8	0.98044
725.0	0.98025
725.2	0.97958
725.4	0.97894
725.6	0.97941
725.8	0.97779
726.0	0.97844
726.2	0.98039
726.4	0.97968
726.6	0.97854
726.8	0.97867
727.0	0.97756
727.2	0.97963
727.4	0.9831
727.6	0.98119
727.8	0.97906
728.0	0.97837
728.2	0.97839
728.4	0.97915
728.6	0.9803
728.8	0.98002
729.0	0.97806
729.2	0.97784
729.4	0.97713
729.6	0.97541
729.8	0.9764
730.0	0.97871
730.2	0.97839
730.4	0.97854
730.6	0.97826
730.8	0.97641
731.0	0.97629
731.2	0.97563
731.4	0.97612
731.6	0.97744
731.8	0.9797
732.0	0.97954
732.2	0.97729
732.4	0.97634
732.6	0.97529
732.8	0.97588
733.0	0.9789
733.2	0.97912
733.4	0.9792
733.6	0.98058
733.8	0.97985
734.0	0.97876
734.2	0.97793
734.4	0.97804
734.6	0.97797
734.8	0.97803
735.0	0.97941
735.2	0.97945
735.4	0.97698
735.6	0.97402
735.8	0.9753
736.0	0.97583
736.2	0.97559
736.4	0.97515
736.6	0.97527
736.8	0.97475
737.0	0.97504
737.2	0.97327
737.4	0.9725
737.6	0.97127
737.8	0.971
738.0	0.97037
738.2	0.97014
738.4	0.97009
738.6	0.96895
738.8	0.9707
739.0	0.97
739.2	0.97148
739.4	0.97019
739.6	0.96899
739.8	0.96883
740.0	0.97017
740.2	0.97106
740.4	0.97141
740.6	0.97048
740.8	0.97061
741.0	0.97329
741.2	0.97307
741.4	0.97167
741.6	0.96995
741.8	0.96933
742.0	0.9705
742.2	0.97243
742.4	0.97245
742.6	0.9725
742.8	0.97142
743.0	0.97299
743.2	0.97428
743.4	0.97478
743.6	0.97404
743.8	0.9745
744.0	0.97523
744.2	0.97528
744.4	0.97391
744.6	0.97343
744.8	0.97494
745.0	0.97343
745.2	0.97401
745.4	0.97638
745.6	0.97769
745.8	0.97852
746.0	0.97852
746.2	0.97822
746.4	0.978
746.6	0.97992
746.8	0.98213
747.0	0.98314
747.2	0.98227
747.4	0.98
747.6	0.97864
747.8	0.9782
748.0	0.98032
748.2	0.98332
748.4	0.98564
748.6	0.98718
748.8	0.98674
749.0	0.98713
749.2	0.98761
749.4	0.98844
749.6	0.98778
749.8	0.98608
750.0	0.98419
750.2	0.9844
750.4	0.98528
750.6	0.98601
750.8	0.98587
751.0	0.98643
751.2	0.98574
751.4	0.98376
751.6	0.9818
751.8	0.98109
752.0	0.98257
752.2	0.98097
752.4	0.97911
752.6	0.9795
752.8	0.9826
753.0	0.98151
753.2	0.98097
753.4	0.97987
753.6	0.97765
753.8	0.97807
754.0	0.97839
754.2	0.97889
754.4	0.97728
754.6	0.97455
754.8	0.97542
755.0	0.97605
755.2	0.97615
755.4	0.97585
755.6	0.97701
755.8	0.97643
756.0	0.97836
756.2	0.97745
756.4	0.97392
756.6	0.96954
756.8	0.96973
757.0	0.96752
757.2	0.96863
757.4	0.9674
757.6	0.96727
757.8	0.96681
758.0	0.96664
758.2	0.96465
758.4	0.96443
758.6	0.96615
758.8	0.96722
759.0	0.96524
759.2	0.96346
759.4	0.96221
759.6	0.96058
759.8	0.9595
760.0	0.95922
760.2	0.96003
760.4	0.96129
760.6	0.96261
760.8	0.96184
761.0	0.96076
761.2	0.9602
761.4	0.95968
761.6	0.95825
761.8	0.95792
762.0	0.95608
762.2	0.95877
762.4	0.96069
762.6	0.95929
762.8	0.95963
763.0	0.96025
763.2	0.95918
763.4	0.96163
763.6	0.96301
763.8	0.96498
764.0	0.96371
764.2	0.9658
764.4	0.96666
764.6	0.96567
764.8	0.96347
765.0	0.96236
765.2	0.96205
765.4	0.9628
765.6	0.96497
765.8	0.96536
766.0	0.96308
766.2	0.9628
766.4	0.96449
766.6	0.96438
766.8	0.96655
767.0	0.96741
767.2	0.96787
767.4	0.96889
767.6	0.96996
767.8	0.97179
768.0	0.97228
768.2	0.97236
768.4	0.97391
768.6	0.97624
768.8	0.97472
769.0	0.97484
769.2	0.97489
769.4	0.9753
769.6	0.97403
769.8	0.97398
770.0	0.97436
770.2	0.97515
770.4	0.97368
770.6	0.97426
770.8	0.97516
771.0	0.97486
771.2	0.97629
771.4	0.97533
771.6	0.97449
771.8	0.97338
772.0	0.97654
772.2	0.97807
772.4	0.97918
772.6	0.97742
772.8	0.97447
773.0	0.97589
773.2	0.97707
773.4	0.97371
773.6	0.97414
773.8	0.97451
774.0	0.97448
774.2	0.97436
774.4	0.97568
774.6	0.97252
774.8	0.97137
775.0	0.97053
775.2	0.97156
775.4	0.97174
775.6	0.97085
775.8	0.9702
776.0	0.97022
776.2	0.97058
776.4	0.97103
776.6	0.97261
776.8	0.9712
777.0	0.96942
777.2	0.9708
777.4	0.97074
777.6	0.96819
777.8	0.96816
778.0	0.96785
778.2	0.96846
778.4	0.96979
778.6	0.97132
778.8	0.97122
779.0	0.97093
779.2	0.9686
779.4	0.96857
779.6	0.97081
779.8	0.97161
780.0	0.97267
780.2	0.97377
780.4	0.97303
780.6	0.97331
780.8	0.97629
781.0	0.97686
781.2	0.97591
781.4	0.97608
781.6	0.97605
781.8	0.97504
782.0	0.97766
782.2	0.97812
782.4	0.97657
782.6	0.97516
782.8	0.97532
783.0	0.97465
783.2	0.97668
783.4	0.97576
783.6	0.97498
783.8	0.97599
784.0	0.97523
784.2	0.97721
784.4	0.97756
784.6	0.97516
784.8	0.9748
785.0	0.97609
785.2	0.97684
785.4	0.9784
785.6	0.97976
785.8	0.97974
786.0	0.97951
786.2	0.98204
786.4	0.9815
786.6	0.98006
786.8	0.97976
787.0	0.97828
787.2	0.97803
787.4	0.97822
787.6	0.9807
787.8	0.9808
788.0	0.98275
788.2	0.98367
788.4	0.98297
788.6	0.98401
788.8	0.98376
789.0	0.98459
789.2	0.98472
789.4	0.98288
789.6	0.98242
789.8	0.98052
790.0	0.98098
790.2	0.97995
790.4	0.97732
790.6	0.97622
790.8	0.97295
791.0	0.97266
791.2	0.97568
791.4	0.97611
791.6	0.97663
791.8	0.97755
792.0	0.97687
792.2	0.97338
792.4	0.9735
792.6	0.97434
792.8	0.97478
793.0	0.97577
793.2	0.9735
793.4	0.97126
793.6	0.97055
793.8	0.96737
794.0	0.96844
794.2	0.97041
794.4	0.97195
794.6	0.97174
794.8	0.97079
795.0	0.97254
795.2	0.97218
795.4	0.97285
795.6	0.97307
795.8	0.97545
796.0	0.97738
796.2	0.97668
796.4	0.97287
796.6	0.97147
796.8	0.97224
797.0	0.97285
797.2	0.97176
797.4	0.97211
797.6	0.97358
797.8	0.97332
798.0	0.97277
798.2	0.97179
798.4	0.97059
798.6	0.97175
798.8	0.97035
799.0	0.97165
799.2	0.97392
799.4	0.97364
799.6	0.97204
799.8	0.97243
800.0	0.97066
800.2	0.96796
800.4	0.9655
800.6	0.96622
800.8	0.96851
801.0	0.97076
801.2	0.97168
801.4	0.97091
801.6	0.97092
801.8	0.96897
802.0	0.96885
802.2	0.96872
802.4	0.9708
802.6	0.97245
802.8	0.9743
803.0	0.97653
803.2	0.97335
803.4	0.97338
803.6	0.97114
803.8	0.97091
804.0	0.97109
804.2	0.97115
804.4	0.97168
804.6	0.97116
804.8	0.97375
805.0	0.97499
805.2	0.97222
805.4	0.97031
805.6	0.96974
805.8	0.96986
806.0	0.97058
806.2	0.9709
806.4	0.97094
806.6	0.97282
806.8	0.97391
807.0	0.97288
807.2	0.97062
807.4	0.97016
807.6	0.96909
807.8	0.97208
808.0	0.97382
808.2	0.97299
808.4	0.97092
808.6	0.969
808.8	0.96953
809.0	0.97065
809.2	0.96995
809.4	0.96737
809.6	0.96737
809.8	0.96892
810.0	0.96817
810.2	0.96579
810.4	0.96349
810.6	0.96516
810.8	0.9681
811.0	0.96783
811.2	0.96575
811.4	0.96722
811.6	0.96636
811.8	0.96547
812.0	0.9642
812.2	0.96414
812.4	0.9654
812.6	0.96647
812.8	0.96669
813.0	0.96921
813.2	0.96764
813.4	0.96661
813.6	0.96855
813.8	0.96959
814.0	0.96894
814.2	0.96827
814.4	0.96964
814.6	0.96782
814.8	0.96803
815.0	0.96879
815.2	0.96921
815.4	0.968
815.6	0.9668
815.8	0.96831
816.0	0.9695
816.2	0.97271
816.4	0.9738
816.6	0.9753
816.8	0.97857
817.0	0.98126
817.2	0.98196
817.4	0.98064
817.6	0.97918
817.8	0.9808
818.0	0.98093
818.2	0.97799
818.4	0.97486
818.6	0.9754
818.8	0.97709
819.0	0.9805
819.2	0.98147
819.4	0.98226
819.6	0.98337
819.8	0.98131
820.0	0.98054
820.2	0.97841
820.4	0.98059
820.6	0.98139
820.8	0.98013
821.0	0.97935
821.2	0.97968
821.4	0.9813
821.6	0.97977
821.8	0.98142
822.0	0.97927
822.2	0.97669
822.4	0.97844
822.6	0.97978
822.8	0.98033
823.0	0.98023
823.2	0.97831
823.4	0.98006
823.6	0.98234
823.8	0.98073
824.0	0.98095
824.2	0.981
824.4	0.98248
824.6	0.98183
824.8	0.97992
825.0	0.98019
825.2	0.98155
825.4	0.9813
825.6	0.97931
825.8	0.97881
826.0	0.97734
826.2	0.97717
826.4	0.97945
826.6	0.97946
826.8	0.97786
827.0	0.98147
827.2	0.98237
827.4	0.98474
827.6	0.98657
827.8	0.98536
828.0	0.98311
828.2	0.98275
828.4	0.98146
828.6	0.97934
828.8	0.97609
829.0	0.97522
829.2	0.97394
829.4	0.97294
829.6	0.97262
829.8	0.9734
830.0	0.97385
830.2	0.97516
830.4	0.97698
830.6	0.9742
830.8	0.97309
831.0	0.97037
831.2	0.9698
831.4	0.97148
831.6	0.97448
831.8	0.9755
832.0	0.97422
832.2	0.96925
832.4	0.96668
832.6	0.96584
832.8	0.96617
833.0	0.96792
833.2	0.96797
833.4	0.96538
833.6	0.96394
833.8	0.96578
834.0	0.96515
834.2	0.96282
834.4	0.96256
834.6	0.96379
834.8	0.96398
835.0	0.96641
835.2	0.9682
835.4	0.96772
835.6	0.96795
835.8	0.9685
836.0	0.96635
836.2	0.96662
836.4	0.96553
836.6	0.9635
836.8	0.96403
837.0	0.96582
837.2	0.96746
837.4	0.96838
837.6	0.96598
837.8	0.9644
838.0	0.96408
838.2	0.96555
838.4	0.96617
838.6	0.96315
838.8	0.96241
839.0	0.96374
839.2	0.96308
839.4	0.96031
839.6	0.95875
839.8	0.95887
840.0	0.96283
840.2	0.96767
840.4	0.96715
840.6	0.96176
840.8	0.95984
841.0	0.96014
841.2	0.96297
841.4	0.96587
841.6	0.96526
841.8	0.96503
842.0	0.96582
842.2	0.96651
842.4	0.96765
842.6	0.96714
842.8	0.96558
843.0	0.965
843.2	0.96594
843.4	0.96659
843.6	0.9698
843.8	0.96853
844.0	0.96805
844.2	0.96915
844.4	0.96922
844.6	0.97224
844.8	0.97364
845.0	0.97326
845.2	0.97319
845.4	0.97187
845.6	0.96875
845.8	0.96758
846.0	0.96728
846.2	0.96819
846.4	0.96677
846.6	0.96618
846.8	0.97082
847.0	0.97389
847.2	0.97336
847.4	0.97201
847.6	0.97336
847.8	0.97146
848.0	0.97144
848.2	0.97432
848.4	0.97596
848.6	0.97614
848.8	0.97343
849.0	0.97159
849.2	0.96906
849.4	0.96835
849.6	0.96833
849.8	0.96933
850.0	0.97181
850.2	0.97141
850.4	0.9713
850.6	0.97253
850.8	0.97227
851.0	0.97029
851.2	0.97171
851.4	0.97386
851.6	0.97706
851.8	0.97609
852.0	0.97451
852.2	0.97281
852.4	0.97337
852.6	0.97308
852.8	0.97426
853.0	0.97621
853.2	0.97578
853.4	0.97196
853.6	0.97133
853.8	0.97199
854.0	0.9709
854.2	0.97182
854.4	0.97589
854.6	0.97583
854.8	0.97448
855.0	0.97389
855.2	0.97327
855.4	0.97253
855.6	0.97288
855.8	0.97169
856.0	0.97169
856.2	0.97144
856.4	0.97623
856.6	0.98045
856.8	0.97858
857.0	0.9763
857.2	0.9759
857.4	0.97605
857.6	0.97303
857.8	0.97334
858.0	0.97363
858.2	0.97607
858.4	0.97602
858.6	0.97525
858.8	0.97472
859.0	0.97286
859.2	0.97196
859.4	0.97111
859.6	0.96959
859.8	0.97205
860.0	0.97339
860.2	0.97344
860.4	0.97278
860.6	0.9708
860.8	0.97161
861.0	0.97081
861.2	0.96982
861.4	0.96992
861.6	0.97066
861.8	0.97266
862.0	0.97245
862.2	0.97253
862.4	0.97383
862.6	0.97459
862.8	0.97596
863.0	0.97525
863.2	0.97325
863.4	0.97459
863.6	0.97518
863.8	0.9735
864.0	0.97227
864.2	0.97493
864.4	0.9749
864.6	0.97288
864.8	0.97109
865.0	0.9678
865.2	0.96629
865.4	0.96826
865.6	0.96704
865.8	0.96827
866.0	0.97054
866.2	0.97029
866.4	0.96982
866.6	0.97006
866.8	0.96984
867.0	0.97109
867.2	0.96949
867.4	0.96817
867.6	0.96793
867.8	0.96421
868.0	0.96312
868.2	0.96425
868.4	0.96407
868.6	0.96408
868.8	0.96664
869.0	0.96873
869.2	0.96887
869.4	0.96668
869.6	0.96568
869.8	0.96608
870.0	0.96828
870.2	0.96965
870.4	0.96805
870.6	0.96778
870.8	0.96575
871.0	0.9669
871.2	0.96907
871.4	0.97055
871.6	0.97222
871.8	0.97054
872.0	0.97078
872.2	0.97158
872.4	0.97074
872.6	0.97078
872.8	0.96971
873.0	0.96693
873.2	0.96659
873.4	0.96537
873.6	0.96598
873.8	0.96958
874.0	0.97162
874.2	0.9729
874.4	0.97258
874.6	0.97112
874.8	0.97027
875.0	0.96883
875.2	0.9678
875.4	0.96871
875.6	0.96931
875.8	0.96972
876.0	0.97129
876.2	0.97285
876.4	0.9721
876.6	0.97002
876.8	0.97168
877.0	0.97194
877.2	0.97192
877.4	0.96927
877.6	0.96869
877.8	0.96935
878.0	0.96962
878.2	0.97044
878.4	0.97128
878.6	0.97472
878.8	0.97687
879.0	0.97654
879.2	0.97751
879.4	0.97913
879.6	0.97728
879.8	0.97498
880.0	0.97498
880.2	0.97774
880.4	0.98009
880.6	0.98025
880.8	0.98012
881.0	0.97954
881.2	0.97858
881.4	0.97872
881.6	0.97944
881.8	0.98045
882.0	0.98034
882.2	0.98027
882.4	0.97901
882.6	0.97892
882.8	0.97949
883.0	0.97813
883.2	0.97856
883.4	0.97803
883.6	0.97588
883.8	0.9759
884.0	0.97807
884.2	0.97939
884.4	0.9818
884.6	0.98314
884.8	0.98065
885.0	0.97971
885.2	0.98028
885.4	0.98313
885.6	0.98511
885.8	0.98539
886.0	0.98312
886.2	0.97987
886.4	0.98033
886.6	0.97908
886.8	0.97848
887.0	0.97923
887.2	0.98002
887.4	0.98138
887.6	0.98237
887.8	0.98127
888.0	0.98196
888.2	0.97971
888.4	0.98046
888.6	0.982
888.8	0.98438
889.0	0.9831
889.2	0.98204
889.4	0.98157
889.6	0.97918
889.8	0.97742
890.0	0.97727
890.2	0.97781
890.4	0.978
890.6	0.97816
890.8	0.97826
891.0	0.97689
891.2	0.9752
891.4	0.97401
891.6	0.97241
891.8	0.97257
892.0	0.97394
892.2	0.97525
892.4	0.97567
892.6	0.97579
892.8	0.97593
893.0	0.97486
893.2	0.97212
893.4	0.97205
893.6	0.97497
893.8	0.97578
894.0	0.97524
894.2	0.97489
894.4	0.97668
894.6	0.97537
894.8	0.97454
895.0	0.97326
895.2	0.97244
895.4	0.97208
895.6	0.97437
895.8	0.97565
896.0	0.97614
896.2	0.97447
896.4	0.97306
896.6	0.97273
896.8	0.97335
897.0	0.97229
897.2	0.97109
897.4	0.96991
897.6	0.96961
897.8	0.97033
898.0	0.97191
898.2	0.97285
898.4	0.97074
898.6	0.96975
898.8	0.9692
899.0	0.96789
899.2	0.96827
899.4	0.96977
899.6	0.9705
899.8	0.96915
900.0	0.96994
900.2	0.96958
900.4	0.96786
900.6	0.96445
900.8	0.96718
901.0	0.96714
901.2	0.96858
901.4	0.96602
901.6	0.96978
901.8	0.97225
902.0	0.97183
902.2	0.97516
902.4	0.9763
902.6	0.97506
902.8	0.97411
903.0	0.97417
903.2	0.97325
903.4	0.97451
903.6	0.9745
903.8	0.97321
904.0	0.97283
904.2	0.97441
904.4	0.97574
904.6	0.97588
904.8	0.97442
905.0	0.97524
905.2	0.97768
905.4	0.9776
905.6	0.97476
905.8	0.97339
906.0	0.97228
906.2	0.97179
906.4	0.97124
906.6	0.97019
906.8	0.96964
907.0	0.96883
907.2	0.97314
907.4	0.9741
907.6	0.97235
907.8	0.97101
908.0	0.97323
908.2	0.97262
908.4	0.9709
908.6	0.97345
908.8	0.97489
909.0	0.97505
909.2	0.97597
909.4	0.97528
909.6	0.97191
909.8	0.97051
910.0	0.97113
910.2	0.97216
910.4	0.97071
910.6	0.96968
910.8	0.97044
911.0	0.97088
911.2	0.97178
911.4	0.97258
911.6	0.96835
911.8	0.96823
912.0	0.96992
912.2	0.97196
912.4	0.97047
912.6	0.9701
912.8	0.97143
913.0	0.97103
913.2	0.96852
913.4	0.96878
913.6	0.97
913.8	0.96762
914.0	0.9683
914.2	0.96915
914.4	0.96987
914.6	0.96833
914.8	0.96854
915.0	0.96972
915.2	0.9694
915.4	0.9692
915.6	0.96974
915.8	0.96701
916.0	0.96558
916.2	0.96429
916.4	0.9655
916.6	0.96699
916.8	0.96495
917.0	0.96455
917.2	0.96335
917.4	0.96309
917.6	0.96437
917.8	0.96384
918.0	0.9638
918.2	0.96476
918.4	0.96542
918.6	0.96944
918.8	0.97214
919.0	0.97047
919.2	0.96901
919.4	0.96617
919.6	0.96444
919.8	0.96425
920.0	0.96205
920.2	0.96362
920.4	0.96488
920.6	0.96552
920.8	0.96734
921.0	0.96988
921.2	0.97135
921.4	0.97118
921.6	0.97114
921.8	0.97056
922.0	0.97006
922.2	0.96949
922.4	0.96749
922.6	0.96448
922.8	0.96309
923.0	0.96302
923.2	0.96406
923.4	0.96683
923.6	0.96974
923.8	0.97056
924.0	0.96909
924.2	0.96827
924.4	0.96808
924.6	0.9681
924.8	0.96642
925.0	0.96606
925.2	0.96528
925.4	0.963
925.6	0.96203
925.8	0.96127
926.0	0.96159
926.2	0.96141
926.4	0.96136
926.6	0.96348
926.8	0.96573
927.0	0.96527
927.2	0.96311
927.4	0.96057
927.6	0.96055
927.8	0.96197
928.0	0.96435
928.2	0.96511
928.4	0.96647
928.6	0.96652
928.8	0.96496
929.0	0.9638
929.2	0.96284
929.4	0.96241
929.6	0.96285
929.8	0.96523
930.0	0.96761
930.2	0.96896
930.4	0.97078
930.6	0.96968
930.8	0.97036
931.0	0.96786
931.2	0.96398
931.4	0.96109
931.6	0.96603
931.8	0.96503
932.0	0.96425
932.2	0.9642
932.4	0.96691
932.6	0.9677
932.8	0.96805
933.0	0.96901
933.2	0.9702
933.4	0.96869
933.6	0.9668
933.8	0.96527
934.0	0.96264
934.2	0.96289
934.4	0.96401
934.6	0.96401
934.8	0.9631
935.0	0.96267
935.2	0.9624
935.4	0.96333
935.6	0.96263
935.8	0.96181
936.0	0.96262
936.2	0.96196
936.4	0.96115
936.6	0.9619
936.8	0.96172
937.0	0.96193
937.2	0.96353
937.4	0.96318
937.6	0.96102
937.8	0.95994
938.0	0.95646
938.2	0.95551
938.4	0.95633
938.6	0.95767
938.8	0.95624
939.0	0.95719
939.2	0.95624
939.4	0.95765
939.6	0.95781
939.8	0.95622
940.0	0.95427
940.2	0.95345
940.4	0.95289
940.6	0.95205
940.8	0.95089
941.0	0.95214
941.2	0.95115
941.4	0.95131
941.6	0.95096
941.8	0.95454
942.0	0.95697
942.2	0.95508
942.4	0.9522
942.6	0.94978
942.8	0.94972
943.0	0.95203
943.2	0.95366
943.4	0.9556
943.6	0.95771
943.8	0.95873
944.0	0.95875
944.2	0.9596
944.4	0.96125
944.6	0.961
944.8	0.95759
945.0	0.95358
945.2	0.94945
945.4	0.94904
945.6	0.94983
945.8	0.95013
946.0	0.95136
946.2	0.95293
946.4	0.95365
946.6	0.95372
946.8	0.9524
947.0	0.9529
947.2	0.95432
947.4	0.95745
947.6	0.95887
947.8	0.9601
948.0	0.96107
948.2	0.96244
948.4	0.96218
948.6	0.96312
948.8	0.96267
949.0	0.96314
949.2	0.96219
949.4	0.96297
949.6	0.96279
949.8	0.96169
950.0	0.96241
950.2	0.96471
950.4	0.96436
950.6	0.96281
950.8	0.96148
951.0	0.95946
951.2	0.95927
951.4	0.96036
951.6	0.96186
951.8	0.9619
952.0	0.96023
952.2	0.96155
952.4	0.96197
952.6	0.96402
952.8	0.96352
953.0	0.96535
953.2	0.96739
953.4	0.96899
953.6	0.97099
953.8	0.97289
954.0	0.97201
954.2	0.97108
954.4	0.97514
954.6	0.97474
954.8	0.97341
955.0	0.97505
955.2	0.9753
955.4	0.97584
955.6	0.97503
955.8	0.97341
956.0	0.97438
956.2	0.97568
956.4	0.97536
956.6	0.97238
956.8	0.971
957.0	0.97081
957.2	0.96998
957.4	0.9702
957.6	0.97098
957.8	0.96977
958.0	0.97009
958.2	0.97073
958.4	0.97175
958.6	0.97326
958.8	0.97364
959.0	0.97313
959.2	0.97269
959.4	0.97267
959.6	0.97339
959.8	0.97345
960.0	0.97115
