#Typical Measured Spectrum of Semrock LPD02-1064RU Optical Filter	
#For wavelengths between 320 and 1120 nm, values near or below 3e-7 (Optical Density 6.5) are measurement noise limited.
#For wavelengths < 320 nm and > 1120 nm, values near or below 3e-6 (Optical Density 5.5) are measurement noise limited. 
#Data format:  Wavelength (nm) <tab> Transmission (0 to 1)
1055.0	0.00521
1055.2	0.00528
1055.4	0.00549
1055.6	0.00556
1055.8	0.00562
1056.0	0.00563
1056.2	0.00569
1056.4	0.00587
1056.6	0.00581
1056.8	0.00589
1057.0	0.00624
1057.2	0.00645
1057.4	0.00627
1057.6	0.00654
1057.8	0.00662
1058.0	0.00687
1058.2	0.00694
1058.4	0.0074
1058.6	0.00748
1058.8	0.00781
1059.0	0.00807
1059.2	0.0084
1059.4	0.00873
1059.6	0.00896
1059.8	0.00952
1060.0	0.00963
1060.2	0.01025
1060.4	0.01056
1060.6	0.01108
1060.8	0.01147
1061.0	0.0121
1061.2	0.01271
1061.4	0.0137
1061.6	0.01416
1061.8	0.01498
1062.0	0.01585
1062.2	0.01675
1062.4	0.01756
1062.6	0.01863
1062.8	0.01981
1063.0	0.02135
1063.2	0.02268
1063.4	0.0243
1063.6	0.02559
1063.8	0.02754
1064.0	0.02965
1064.2	0.03184
1064.4	0.03361
1064.6	0.03661
1064.8	0.04317
1065.0	0.04675
1065.2	0.05088
1065.4	0.05545
1065.6	0.0603
1065.8	0.0656
1066.0	0.07123
1066.2	0.07801
1066.4	0.08563
1066.6	0.09343
1066.8	0.10251
1067.0	0.11253
1067.2	0.12275
1067.4	0.13488
1067.6	0.14765
1067.8	0.16255
1068.0	0.17817
1068.2	0.19414
1068.4	0.21329
1068.6	0.23265
1068.8	0.25444
1069.0	0.27637
1069.2	0.30138
1069.4	0.32617
1069.6	0.3527
1069.8	0.38026
1070.0	0.40932
1070.2	0.43901
1070.4	0.47164
1070.6	0.50142
1070.8	0.53419
1071.0	0.56638
1071.2	0.60258
1071.4	0.6322
1071.6	0.66647
1071.8	0.69457
1072.0	0.72284
1072.2	0.75209
1072.4	0.77991
1072.6	0.80606
1072.8	0.83224
1073.0	0.85376
1073.2	0.87318
1073.4	0.89541
1073.6	0.90908
1073.8	0.9199
1074.0	0.93085
1074.2	0.93785
1074.4	0.95045
1074.6	0.96043
1074.8	0.96386
1075.0	0.96812
1075.2	0.9731
1075.4	0.97487
1075.6	0.97486
1075.8	0.9755
1076.0	0.9765
1076.2	0.97943
1076.4	0.9799
1076.6	0.97915
1076.8	0.98168
1077.0	0.98227
1077.2	0.98342
1077.4	0.98518
1077.6	0.98506
1077.8	0.98722
1078.0	0.987
1078.2	0.9893
1078.4	0.98777
1078.6	0.98611
1078.8	0.98717
1079.0	0.98756
1079.2	0.98759
1079.4	0.98955
1079.6	0.98852
1079.8	0.98596
1080.0	0.98817
1080.2	0.98445
1080.4	0.98062
1080.6	0.97963
1080.8	0.97966
1081.0	0.97765
1081.2	0.97594
1081.4	0.97434
1081.6	0.97497
1081.8	0.97116
1082.0	0.97396
1082.2	0.97062
1082.4	0.97045
1082.6	0.97007
1082.8	0.96839
1083.0	0.96772
1083.2	0.96777
1083.4	0.96705
1083.6	0.96606
1083.8	0.96427
1084.0	0.96212
1084.2	0.96479
1084.4	0.96531
1084.6	0.96652
1084.8	0.96786
1085.0	0.97058
1085.2	0.96995
1085.4	0.96953
1085.6	0.96782
1085.8	0.96651
1086.0	0.96562
1086.2	0.96601
1086.4	0.96722
1086.6	0.96435
1086.8	0.96609
1087.0	0.96359
1087.2	0.96333
1087.4	0.9641
1087.6	0.96471
1087.8	0.96556
1088.0	0.96554
1088.2	0.9658
1088.4	0.96545
1088.6	0.96176
1088.8	0.95925
1089.0	0.95802
1089.2	0.95539
1089.4	0.95482
1089.6	0.95182
1089.8	0.95308
1090.0	0.95055
1090.2	0.94856
1090.4	0.94899
1090.6	0.94461
1090.8	0.94226
1091.0	0.93892
1091.2	0.94206
1091.4	0.94204
1091.6	0.94013
1091.8	0.94057
1092.0	0.93621
1092.2	0.93572
1092.4	0.93491
1092.6	0.93514
1092.8	0.9359
1093.0	0.93661
1093.2	0.93803
1093.4	0.9387
1093.6	0.94011
1093.8	0.93864
1094.0	0.94515
1094.2	0.94747
1094.4	0.949
1094.6	0.95229
1094.8	0.95394
1095.0	0.95353
1095.2	0.95706
1095.4	0.95551
1095.6	0.95968
1095.8	0.95905
1096.0	0.957
1096.2	0.95925
1096.4	0.9635
1096.6	0.96109
1096.8	0.96244
1097.0	0.96721
1097.2	0.96515
1097.4	0.96832
1097.6	0.96732
1097.8	0.96836
1098.0	0.97149
1098.2	0.96853
1098.4	0.97174
1098.6	0.97371
1098.8	0.97131
1099.0	0.96916
1099.2	0.97186
1099.4	0.97249
1099.6	0.96769
1099.8	0.96943
1100.0	0.97203
1100.2	0.96923
1100.4	0.96825
1100.6	0.96322
1100.8	0.96311
1101.0	0.96079
1101.2	0.95892
1101.4	0.95999
1101.6	0.95862
1101.8	0.95752
1102.0	0.95244
1102.2	0.95563
1102.4	0.95024
1102.6	0.95359
1102.8	0.95344
1103.0	0.95129
1103.2	0.94905
1103.4	0.94751
1103.6	0.94673
1103.8	0.94779
1104.0	0.94665
1104.2	0.94559
1104.4	0.95353
1104.6	0.94864
1104.8	0.95029
1105.0	0.94758
1105.2	0.94868
1105.4	0.94887
1105.6	0.94969
1105.8	0.94887
1106.0	0.94887
1106.2	0.95541
1106.4	0.95175
1106.6	0.9532
1106.8	0.95287
1107.0	0.95255
1107.2	0.95591
1107.4	0.95794
1107.6	0.96049
1107.8	0.96038
1108.0	0.95947
1108.2	0.95861
1108.4	0.96045
1108.6	0.96193
1108.8	0.96434
1109.0	0.96486
1109.2	0.96367
1109.4	0.96763
1109.6	0.96865
1109.8	0.96838
1110.0	0.97029
1110.2	0.97271
1110.4	0.97196
1110.6	0.97608
1110.8	0.97025
1111.0	0.97453
1111.2	0.97555
1111.4	0.97346
1111.6	0.9728
1111.8	0.97102
1112.0	0.97225
1112.2	0.96978
1112.4	0.96869
1112.6	0.97064
1112.8	0.97293
1113.0	0.96915
1113.2	0.9626
1113.4	0.96283
1113.6	0.96084
1113.8	0.95487
1114.0	0.95937
1114.2	0.95767
1114.4	0.9619
1114.6	0.95997
1114.8	0.95785
1115.0	0.95787
1115.2	0.95835
1115.4	0.95774
1115.6	0.95782
1115.8	0.95181
1116.0	0.95208
1116.2	0.94998
1116.4	0.95156
1116.6	0.94377
1116.8	0.94609
1117.0	0.94735
1117.2	0.93915
1117.4	0.94453
1117.6	0.94132
1117.8	0.94229
1118.0	0.94107
1118.2	0.94502
1118.4	0.94163
1118.6	0.9394
1118.8	0.93975
1119.0	0.94142
1119.2	0.94944
1119.4	0.95282
1119.6	0.95293
1119.8	0.95015
1120.0	0.95761
1120.2	0.95625
1120.4	0.959
1120.6	0.95507
1120.8	0.95623
1121.0	0.96093
1121.2	0.96003
1121.4	0.96427
1121.6	0.96421
1121.8	0.96514
1122.0	0.96208
1122.2	0.96226
1122.4	0.9642
1122.6	0.96284
1122.8	0.96141
1123.0	0.96793
1123.2	0.96311
1123.4	0.96118
1123.6	0.96864
1123.8	0.96684
1124.0	0.97287
1124.2	0.96956
1124.4	0.96889
1124.6	0.97268
1124.8	0.97643
1125.0	0.96091
1125.2	0.9615
1125.4	0.96208
1125.6	0.96267
1125.8	0.96326
1126.0	0.96385
1126.2	0.96444
1126.4	0.96502
1126.6	0.96561
1126.8	0.9662
1127.0	0.96679
1127.2	0.96738
1127.4	0.96797
1127.6	0.96855
1127.8	0.96914
1128.0	0.96973
1128.2	0.97032
1128.4	0.97091
1128.6	0.97149
1128.8	0.97208
1129.0	0.97267
1129.2	0.97326
1129.4	0.97385
1129.6	0.97443
1129.8	0.97502
1130.0	0.97561
1130.2	0.97464
1130.4	0.97367
1130.6	0.97271
1130.8	0.97174
1131.0	0.97077
1131.2	0.9698
1131.4	0.96883
1131.6	0.96787
1131.8	0.9669
1132.0	0.96593
1132.2	0.96496
1132.4	0.964
1132.6	0.96303
1132.8	0.96206
1133.0	0.96109
1133.2	0.96012
1133.4	0.95916
1133.6	0.95819
1133.8	0.95722
1134.0	0.95625
1134.2	0.95528
1134.4	0.95432
1134.6	0.95335
1134.8	0.95238
1135.0	0.95141
1135.2	0.95226
1135.4	0.95311
1135.6	0.95396
1135.8	0.95481
1136.0	0.95566
1136.2	0.95651
1136.4	0.95735
1136.6	0.9582
1136.8	0.95905
1137.0	0.9599
1137.2	0.96075
1137.4	0.9616
1137.6	0.96245
1137.8	0.9633
1138.0	0.96414
1138.2	0.96499
1138.4	0.96584
1138.6	0.96669
1138.8	0.96754
1139.0	0.96839
1139.2	0.96924
1139.4	0.97009
1139.6	0.97093
1139.8	0.97178
1140.0	0.97263
1140.2	0.97242
1140.4	0.97222
1140.6	0.97201
1140.8	0.9718
1141.0	0.97159
1141.2	0.97139
1141.4	0.97118
1141.6	0.97097
1141.8	0.97076
1142.0	0.97056
1142.2	0.97035
1142.4	0.97014
1142.6	0.96993
1142.8	0.96973
1143.0	0.96952
1143.2	0.96931
1143.4	0.9691
1143.6	0.9689
1143.8	0.96869
1144.0	0.96848
1144.2	0.96827
1144.4	0.96807
1144.6	0.96786
1144.8	0.96765
1145.0	0.96744
1145.2	0.96712
1145.4	0.9668
1145.6	0.96648
1145.8	0.96616
1146.0	0.96584
1146.2	0.96552
1146.4	0.9652
1146.6	0.96487
1146.8	0.96455
1147.0	0.96423
1147.2	0.96391
1147.4	0.96359
1147.6	0.96327
1147.8	0.96295
1148.0	0.96263
1148.2	0.9623
1148.4	0.96198
1148.6	0.96166
1148.8	0.96134
1149.0	0.96102
1149.2	0.9607
1149.4	0.96038
1149.6	0.96006
1149.8	0.95973
1150.0	0.95941
1150.2	0.96003
1150.4	0.96065
1150.6	0.96127
1150.8	0.96189
1151.0	0.9625
1151.2	0.96312
1151.4	0.96374
1151.6	0.96436
1151.8	0.96498
1152.0	0.9656
1152.2	0.96621
1152.4	0.96683
1152.6	0.96745
1152.8	0.96807
1153.0	0.96869
1153.2	0.96931
1153.4	0.96992
1153.6	0.97054
1153.8	0.97116
1154.0	0.97178
1154.2	0.9724
1154.4	0.97301
1154.6	0.97363
1154.8	0.97425
1155.0	0.97487
1155.2	0.97437
1155.4	0.97387
1155.6	0.97337
1155.8	0.97288
1156.0	0.97238
1156.2	0.97188
1156.4	0.97138
1156.6	0.97088
1156.8	0.97039
1157.0	0.96989
1157.2	0.96939
1157.4	0.96889
1157.6	0.96839
1157.8	0.96789
1158.0	0.9674
1158.2	0.9669
1158.4	0.9664
1158.6	0.9659
1158.8	0.9654
1159.0	0.9649
1159.2	0.96441
1159.4	0.96391
1159.6	0.96341
1159.8	0.96291
1160.0	0.96241
1160.2	0.96235
1160.4	0.96228
1160.6	0.96221
1160.8	0.96214
1161.0	0.96207
1161.2	0.96201
1161.4	0.96194
1161.6	0.96187
1161.8	0.9618
1162.0	0.96174
1162.2	0.96167
1162.4	0.9616
1162.6	0.96153
1162.8	0.96147
1163.0	0.9614
1163.2	0.96133
1163.4	0.96126
1163.6	0.96119
1163.8	0.96113
1164.0	0.96106
1164.2	0.96099
1164.4	0.96092
1164.6	0.96086
1164.8	0.96079
1165.0	0.96072
1165.2	0.96156
1165.4	0.96239
1165.6	0.96323
1165.8	0.96407
1166.0	0.9649
1166.2	0.96574
1166.4	0.96658
1166.6	0.96741
1166.8	0.96825
1167.0	0.96909
1167.2	0.96992
1167.4	0.97076
1167.6	0.9716
1167.8	0.97243
1168.0	0.97327
1168.2	0.97411
1168.4	0.97494
1168.6	0.97578
1168.8	0.97662
1169.0	0.97745
1169.2	0.97829
1169.4	0.97913
1169.6	0.97996
1169.8	0.9808
1170.0	0.98164
1170.2	0.98097
1170.4	0.98029
1170.6	0.97962
1170.8	0.97895
1171.0	0.97828
1171.2	0.9776
1171.4	0.97693
1171.6	0.97626
1171.8	0.97559
1172.0	0.97491
1172.2	0.97424
1172.4	0.97357
1172.6	0.9729
1172.8	0.97222
1173.0	0.97155
1173.2	0.97088
1173.4	0.9702
1173.6	0.96953
1173.8	0.96886
1174.0	0.96819
1174.2	0.96751
1174.4	0.96684
1174.6	0.96617
1174.8	0.9655
1175.0	0.96482
1175.2	0.96476
1175.4	0.96469
1175.6	0.96462
1175.8	0.96456
1176.0	0.96449
1176.2	0.96442
1176.4	0.96435
1176.6	0.96429
1176.8	0.96422
1177.0	0.96415
1177.2	0.96409
1177.4	0.96402
1177.6	0.96395
1177.8	0.96388
1178.0	0.96382
1178.2	0.96375
1178.4	0.96368
1178.6	0.96362
1178.8	0.96355
1179.0	0.96348
1179.2	0.96341
1179.4	0.96335
1179.6	0.96328
1179.8	0.96321
1180.0	0.96314
1180.2	0.96398
1180.4	0.96481
1180.6	0.96565
1180.8	0.96648
1181.0	0.96732
1181.2	0.96815
1181.4	0.96899
1181.6	0.96982
1181.8	0.97065
1182.0	0.97149
1182.2	0.97232
1182.4	0.97316
1182.6	0.97399
1182.8	0.97483
1183.0	0.97566
1183.2	0.9765
1183.4	0.97733
1183.6	0.97816
1183.8	0.979
1184.0	0.97983
1184.2	0.98067
1184.4	0.9815
1184.6	0.98234
1184.8	0.98317
1185.0	0.98401
1185.2	0.98342
1185.4	0.98283
1185.6	0.98224
1185.8	0.98165
1186.0	0.98106
1186.2	0.98048
1186.4	0.97989
1186.6	0.9793
1186.8	0.97871
1187.0	0.97812
1187.2	0.97754
1187.4	0.97695
1187.6	0.97636
1187.8	0.97577
1188.0	0.97518
1188.2	0.97459
1188.4	0.97401
1188.6	0.97342
1188.8	0.97283
1189.0	0.97224
1189.2	0.97165
1189.4	0.97106
1189.6	0.97048
1189.8	0.96989
1190.0	0.9693
1190.2	0.96915
1190.4	0.96899
1190.6	0.96884
1190.8	0.96869
1191.0	0.96853
1191.2	0.96838
1191.4	0.96823
1191.6	0.96807
1191.8	0.96792
1192.0	0.96777
1192.2	0.96761
1192.4	0.96746
1192.6	0.96731
1192.8	0.96715
1193.0	0.967
1193.2	0.96685
1193.4	0.96669
1193.6	0.96654
1193.8	0.96639
1194.0	0.96623
1194.2	0.96608
1194.4	0.96592
1194.6	0.96577
1194.8	0.96562
1195.0	0.96546
1195.2	0.96621
1195.4	0.96695
1195.6	0.9677
1195.8	0.96844
1196.0	0.96919
1196.2	0.96993
1196.4	0.97068
1196.6	0.97142
1196.8	0.97217
1197.0	0.97291
1197.2	0.97366
1197.4	0.9744
1197.6	0.97515
1197.8	0.97589
1198.0	0.97664
1198.2	0.97738
1198.4	0.97813
1198.6	0.97887
1198.8	0.97962
1199.0	0.98036
1199.2	0.98111
1199.4	0.98185
1199.6	0.9826
1199.8	0.98334
1200.0	0.98409
1200.2	0.98369
1200.4	0.9833
1200.6	0.98291
1200.8	0.98252
1201.0	0.98213
1201.2	0.98174
1201.4	0.98134
1201.6	0.98095
1201.8	0.98056
1202.0	0.98017
1202.2	0.97978
1202.4	0.97939
1202.6	0.97899
1202.8	0.9786
1203.0	0.97821
1203.2	0.97782
1203.4	0.97743
1203.6	0.97704
1203.8	0.97664
1204.0	0.97625
1204.2	0.97586
1204.4	0.97547
1204.6	0.97508
1204.8	0.97469
1205.0	0.97429
1205.2	0.97382
1205.4	0.97335
1205.6	0.97288
1205.8	0.9724
1206.0	0.97193
1206.2	0.97146
1206.4	0.97099
1206.6	0.97051
1206.8	0.97004
1207.0	0.96957
1207.2	0.9691
1207.4	0.96862
1207.6	0.96815
1207.8	0.96768
1208.0	0.96721
1208.2	0.96673
1208.4	0.96626
1208.6	0.96579
1208.8	0.96531
1209.0	0.96484
1209.2	0.96437
1209.4	0.9639
1209.6	0.96342
1209.8	0.96295
1210.0	0.96248
1210.2	0.96316
1210.4	0.96384
1210.6	0.96451
1210.8	0.96519
1211.0	0.96587
1211.2	0.96655
1211.4	0.96723
1211.6	0.96791
1211.8	0.96859
1212.0	0.96926
1212.2	0.96994
1212.4	0.97062
1212.6	0.9713
1212.8	0.97198
1213.0	0.97266
1213.2	0.97334
1213.4	0.97402
1213.6	0.97469
1213.8	0.97537
1214.0	0.97605
1214.2	0.97673
1214.4	0.97741
1214.6	0.97809
1214.8	0.97877
1215.0	0.97944
1215.2	0.97971
1215.4	0.97998
1215.6	0.98024
1215.8	0.98051
1216.0	0.98078
1216.2	0.98105
1216.4	0.98131
1216.6	0.98158
1216.8	0.98185
1217.0	0.98211
1217.2	0.98238
1217.4	0.98265
1217.6	0.98291
1217.8	0.98318
1218.0	0.98345
1218.2	0.98371
1218.4	0.98398
1218.6	0.98425
1218.8	0.98452
1219.0	0.98478
1219.2	0.98505
1219.4	0.98532
1219.6	0.98558
1219.8	0.98585
1220.0	0.98612
1220.2	0.98536
1220.4	0.98459
1220.6	0.98383
1220.8	0.98307
1221.0	0.98231
1221.2	0.98155
1221.4	0.98079
1221.6	0.98002
1221.8	0.97926
1222.0	0.9785
1222.2	0.97774
1222.4	0.97698
1222.6	0.97622
1222.8	0.97546
1223.0	0.97469
1223.2	0.97393
1223.4	0.97317
1223.6	0.97241
1223.8	0.97165
1224.0	0.97089
1224.2	0.97013
1224.4	0.96936
1224.6	0.9686
1224.8	0.96784
1225.0	0.96708
1225.2	0.96743
1225.4	0.96779
1225.6	0.96814
1225.8	0.9685
1226.0	0.96885
1226.2	0.96921
1226.4	0.96956
1226.6	0.96992
1226.8	0.97027
1227.0	0.97062
1227.2	0.97098
1227.4	0.97133
1227.6	0.97169
1227.8	0.97204
1228.0	0.9724
1228.2	0.97275
1228.4	0.97311
1228.6	0.97346
1228.8	0.97382
1229.0	0.97417
1229.2	0.97453
1229.4	0.97488
1229.6	0.97523
1229.8	0.97559
1230.0	0.97594
1230.2	0.97635
1230.4	0.97677
1230.6	0.97718
1230.8	0.97759
1231.0	0.978
1231.2	0.97841
1231.4	0.97882
1231.6	0.97923
1231.8	0.97965
1232.0	0.98006
1232.2	0.98047
1232.4	0.98088
1232.6	0.98129
1232.8	0.9817
1233.0	0.98212
1233.2	0.98253
1233.4	0.98294
1233.6	0.98335
1233.8	0.98376
1234.0	0.98417
1234.2	0.98458
1234.4	0.985
1234.6	0.98541
1234.8	0.98582
1235.0	0.98623
1235.2	0.98586
1235.4	0.9855
1235.6	0.98513
1235.8	0.98477
1236.0	0.9844
1236.2	0.98403
1236.4	0.98367
1236.6	0.9833
1236.8	0.98294
1237.0	0.98257
1237.2	0.9822
1237.4	0.98184
1237.6	0.98147
1237.8	0.98111
1238.0	0.98074
1238.2	0.98037
1238.4	0.98001
1238.6	0.97964
1238.8	0.97928
1239.0	0.97891
1239.2	0.97854
1239.4	0.97818
1239.6	0.97781
1239.8	0.97745
1240.0	0.97708
1240.2	0.9769
1240.4	0.97672
1240.6	0.97654
1240.8	0.97636
1241.0	0.97618
1241.2	0.976
1241.4	0.97582
1241.6	0.97564
1241.8	0.97546
1242.0	0.97528
1242.2	0.9751
1242.4	0.97492
1242.6	0.97474
1242.8	0.97456
1243.0	0.97438
1243.2	0.9742
1243.4	0.97402
1243.6	0.97384
1243.8	0.97366
1244.0	0.97348
1244.2	0.9733
1244.4	0.97313
1244.6	0.97295
1244.8	0.97277
1245.0	0.97259
1245.2	0.973
1245.4	0.97342
1245.6	0.97384
1245.8	0.97425
1246.0	0.97467
1246.2	0.97509
1246.4	0.97551
1246.6	0.97592
1246.8	0.97634
1247.0	0.97676
1247.2	0.97717
1247.4	0.97759
1247.6	0.97801
1247.8	0.97843
1248.0	0.97884
1248.2	0.97926
1248.4	0.97968
1248.6	0.98009
1248.8	0.98051
1249.0	0.98093
1249.2	0.98134
1249.4	0.98176
1249.6	0.98218
1249.8	0.9826
1250.0	0.98301
1250.2	0.9833
1250.4	0.98359
1250.6	0.98388
1250.8	0.98417
1251.0	0.98446
1251.2	0.98475
1251.4	0.98504
1251.6	0.98533
1251.8	0.98562
1252.0	0.98591
1252.2	0.9862
1252.4	0.98649
1252.6	0.98677
1252.8	0.98706
1253.0	0.98735
1253.2	0.98764
1253.4	0.98793
1253.6	0.98822
1253.8	0.98851
1254.0	0.9888
1254.2	0.98909
1254.4	0.98938
1254.6	0.98967
1254.8	0.98996
1255.0	0.99025
1255.2	0.9899
1255.4	0.98956
1255.6	0.98921
1255.8	0.98886
1256.0	0.98852
1256.2	0.98817
1256.4	0.98783
1256.6	0.98748
1256.8	0.98713
1257.0	0.98679
1257.2	0.98644
1257.4	0.9861
1257.6	0.98575
1257.8	0.9854
1258.0	0.98506
1258.2	0.98471
1258.4	0.98437
1258.6	0.98402
1258.8	0.98367
1259.0	0.98333
1259.2	0.98298
1259.4	0.98264
1259.6	0.98229
1259.8	0.98195
1260.0	0.9816
1260.2	0.98208
1260.4	0.98256
1260.6	0.98303
1260.8	0.98351
1261.0	0.98399
1261.2	0.98447
1261.4	0.98495
1261.6	0.98543
1261.8	0.98591
1262.0	0.98638
1262.2	0.98686
1262.4	0.98734
1262.6	0.98782
1262.8	0.9883
1263.0	0.98878
1263.2	0.98925
1263.4	0.98973
1263.6	0.99021
1263.8	0.99069
1264.0	0.99117
1264.2	0.99165
1264.4	0.99212
1264.6	0.9926
1264.8	0.99308
1265.0	0.99356
1265.2	0.99345
1265.4	0.99335
1265.6	0.99324
1265.8	0.99314
1266.0	0.99303
1266.2	0.99292
1266.4	0.99282
1266.6	0.99271
1266.8	0.99261
1267.0	0.9925
1267.2	0.99239
1267.4	0.99229
1267.6	0.99218
1267.8	0.99207
1268.0	0.99197
1268.2	0.99186
1268.4	0.99176
1268.6	0.99165
1268.8	0.99154
1269.0	0.99144
1269.2	0.99133
1269.4	0.99123
1269.6	0.99112
1269.8	0.99101
1270.0	0.99091
1270.2	0.99057
1270.4	0.99023
1270.6	0.98989
1270.8	0.98955
1271.0	0.98921
1271.2	0.98888
1271.4	0.98854
1271.6	0.9882
1271.8	0.98786
1272.0	0.98752
1272.2	0.98718
1272.4	0.98684
1272.6	0.98651
1272.8	0.98617
1273.0	0.98583
1273.2	0.98549
1273.4	0.98515
1273.6	0.98481
1273.8	0.98447
1274.0	0.98414
1274.2	0.9838
1274.4	0.98346
1274.6	0.98312
1274.8	0.98278
1275.0	0.98244
1275.2	0.98217
1275.4	0.98189
1275.6	0.98161
1275.8	0.98133
1276.0	0.98106
1276.2	0.98078
1276.4	0.9805
1276.6	0.98023
1276.8	0.97995
1277.0	0.97967
1277.2	0.9794
1277.4	0.97912
1277.6	0.97884
1277.8	0.97856
1278.0	0.97829
1278.2	0.97801
1278.4	0.97773
1278.6	0.97746
1278.8	0.97718
1279.0	0.9769
1279.2	0.97663
1279.4	0.97635
1279.6	0.97607
1279.8	0.97579
1280.0	0.97552
1280.2	0.9758
1280.4	0.97607
1280.6	0.97635
1280.8	0.97663
1281.0	0.97691
1281.2	0.97718
1281.4	0.97746
1281.6	0.97774
1281.8	0.97802
1282.0	0.9783
1282.2	0.97857
1282.4	0.97885
1282.6	0.97913
1282.8	0.97941
1283.0	0.97969
1283.2	0.97996
1283.4	0.98024
1283.6	0.98052
1283.8	0.9808
1284.0	0.98108
1284.2	0.98135
1284.4	0.98163
1284.6	0.98191
1284.8	0.98219
1285.0	0.98246
1285.2	0.98273
1285.4	0.98299
1285.6	0.98325
1285.8	0.98351
1286.0	0.98377
1286.2	0.98403
1286.4	0.98429
1286.6	0.98455
1286.8	0.98481
1287.0	0.98507
1287.2	0.98533
1287.4	0.98559
1287.6	0.98585
1287.8	0.98612
1288.0	0.98638
1288.2	0.98664
1288.4	0.9869
1288.6	0.98716
1288.8	0.98742
1289.0	0.98768
1289.2	0.98794
1289.4	0.9882
1289.6	0.98846
1289.8	0.98872
1290.0	0.98898
1290.2	0.98903
1290.4	0.98908
1290.6	0.98912
1290.8	0.98917
1291.0	0.98922
1291.2	0.98926
1291.4	0.98931
1291.6	0.98936
1291.8	0.9894
1292.0	0.98945
1292.2	0.9895
1292.4	0.98954
1292.6	0.98959
1292.8	0.98964
1293.0	0.98968
1293.2	0.98973
1293.4	0.98977
1293.6	0.98982
1293.8	0.98987
1294.0	0.98991
1294.2	0.98996
1294.4	0.99001
1294.6	0.99005
1294.8	0.9901
1295.0	0.99015
1295.2	0.99025
1295.4	0.99035
1295.6	0.99044
1295.8	0.99054
1296.0	0.99064
1296.2	0.99074
1296.4	0.99084
1296.6	0.99094
1296.8	0.99104
1297.0	0.99114
1297.2	0.99124
1297.4	0.99134
1297.6	0.99144
1297.8	0.99154
1298.0	0.99164
1298.2	0.99174
1298.4	0.99184
1298.6	0.99194
1298.8	0.99204
1299.0	0.99214
1299.2	0.99224
1299.4	0.99234
1299.6	0.99244
1299.8	0.99253
1300.0	0.99263
1300.2	0.99275
1300.4	0.99286
1300.6	0.99297
1300.8	0.99308
1301.0	0.99319
1301.2	0.99331
1301.4	0.99342
1301.6	0.99353
1301.8	0.99364
1302.0	0.99376
1302.2	0.99387
1302.4	0.99398
1302.6	0.99409
1302.8	0.9942
1303.0	0.99432
1303.2	0.99443
1303.4	0.99454
1303.6	0.99465
1303.8	0.99476
1304.0	0.99488
1304.2	0.99499
1304.4	0.9951
1304.6	0.99521
1304.8	0.99532
1305.0	0.99544
1305.2	0.99506
1305.4	0.99468
1305.6	0.9943
1305.8	0.99393
1306.0	0.99355
1306.2	0.99317
1306.4	0.9928
1306.6	0.99242
1306.8	0.99204
1307.0	0.99166
1307.2	0.99129
1307.4	0.99091
1307.6	0.99053
1307.8	0.99016
1308.0	0.98978
1308.2	0.9894
1308.4	0.98902
1308.6	0.98865
1308.8	0.98827
1309.0	0.98789
1309.2	0.98752
1309.4	0.98714
1309.6	0.98676
1309.8	0.98638
1310.0	0.98601
1310.2	0.98615
1310.4	0.9863
1310.6	0.98644
1310.8	0.98659
1311.0	0.98673
1311.2	0.98688
1311.4	0.98703
1311.6	0.98717
1311.8	0.98732
1312.0	0.98746
1312.2	0.98761
1312.4	0.98775
1312.6	0.9879
1312.8	0.98804
1313.0	0.98819
1313.2	0.98833
1313.4	0.98848
1313.6	0.98863
1313.8	0.98877
1314.0	0.98892
1314.2	0.98906
1314.4	0.98921
1314.6	0.98935
1314.8	0.9895
1315.0	0.98964
1315.2	0.98975
1315.4	0.98985
1315.6	0.98995
1315.8	0.99005
1316.0	0.99015
1316.2	0.99025
1316.4	0.99035
1316.6	0.99045
1316.8	0.99055
1317.0	0.99065
1317.2	0.99075
1317.4	0.99086
1317.6	0.99096
1317.8	0.99106
1318.0	0.99116
1318.2	0.99126
1318.4	0.99136
1318.6	0.99146
1318.8	0.99156
1319.0	0.99166
1319.2	0.99176
1319.4	0.99186
1319.6	0.99197
1319.8	0.99207
1320.0	0.99217
1320.2	0.9921
1320.4	0.99203
1320.6	0.99195
1320.8	0.99188
1321.0	0.99181
1321.2	0.99174
1321.4	0.99167
1321.6	0.9916
1321.8	0.99153
1322.0	0.99146
1322.2	0.99139
1322.4	0.99132
1322.6	0.99125
1322.8	0.99118
1323.0	0.9911
1323.2	0.99103
1323.4	0.99096
1323.6	0.99089
1323.8	0.99082
1324.0	0.99075
1324.2	0.99068
1324.4	0.99061
1324.6	0.99054
1324.8	0.99047
1325.0	0.9904
1325.2	0.99038
1325.4	0.99035
1325.6	0.99033
1325.8	0.99031
1326.0	0.99029
1326.2	0.99027
1326.4	0.99025
1326.6	0.99023
1326.8	0.99021
1327.0	0.99019
1327.2	0.99017
1327.4	0.99015
1327.6	0.99013
1327.8	0.99011
1328.0	0.99009
1328.2	0.99006
1328.4	0.99004
1328.6	0.99002
1328.8	0.99
1329.0	0.98998
1329.2	0.98996
1329.4	0.98994
1329.6	0.98992
1329.8	0.9899
1330.0	0.98988
1330.2	0.98987
1330.4	0.98986
1330.6	0.98985
1330.8	0.98984
1331.0	0.98983
1331.2	0.98982
1331.4	0.98981
1331.6	0.9898
1331.8	0.98979
1332.0	0.98978
1332.2	0.98977
1332.4	0.98976
1332.6	0.98975
1332.8	0.98974
1333.0	0.98974
1333.2	0.98973
1333.4	0.98972
1333.6	0.98971
1333.8	0.9897
1334.0	0.98969
1334.2	0.98968
1334.4	0.98967
1334.6	0.98966
1334.8	0.98965
1335.0	0.98964
1335.2	0.9896
1335.4	0.98956
1335.6	0.98952
1335.8	0.98947
1336.0	0.98943
1336.2	0.98939
1336.4	0.98935
1336.6	0.98931
1336.8	0.98927
1337.0	0.98923
1337.2	0.98918
1337.4	0.98914
1337.6	0.9891
1337.8	0.98906
1338.0	0.98902
1338.2	0.98898
1338.4	0.98894
1338.6	0.98889
1338.8	0.98885
1339.0	0.98881
1339.2	0.98877
1339.4	0.98873
1339.6	0.98869
1339.8	0.98865
1340.0	0.9886
1340.2	0.9885
1340.4	0.9884
1340.6	0.9883
1340.8	0.9882
1341.0	0.9881
1341.2	0.988
1341.4	0.9879
1341.6	0.9878
1341.8	0.9877
1342.0	0.9876
1342.2	0.9875
1342.4	0.9874
1342.6	0.9873
1342.8	0.9872
1343.0	0.9871
1343.2	0.987
1343.4	0.9869
1343.6	0.9868
1343.8	0.9867
1344.0	0.9866
1344.2	0.9865
1344.4	0.9864
1344.6	0.9863
1344.8	0.9862
1345.0	0.98611
1345.2	0.98596
1345.4	0.98582
1345.6	0.98567
1345.8	0.98553
1346.0	0.98539
1346.2	0.98524
1346.4	0.9851
1346.6	0.98495
1346.8	0.98481
1347.0	0.98467
1347.2	0.98452
1347.4	0.98438
1347.6	0.98423
1347.8	0.98409
1348.0	0.98395
1348.2	0.9838
1348.4	0.98366
1348.6	0.98352
1348.8	0.98337
1349.0	0.98323
1349.2	0.98308
1349.4	0.98294
1349.6	0.9828
1349.8	0.98265
1350.0	0.98251
1350.2	0.98268
1350.4	0.98284
1350.6	0.98301
1350.8	0.98318
1351.0	0.98335
1351.2	0.98352
1351.4	0.98368
1351.6	0.98385
1351.8	0.98402
1352.0	0.98419
1352.2	0.98436
1352.4	0.98452
1352.6	0.98469
1352.8	0.98486
1353.0	0.98503
1353.2	0.9852
1353.4	0.98536
1353.6	0.98553
1353.8	0.9857
1354.0	0.98587
1354.2	0.98604
1354.4	0.98621
1354.6	0.98637
1354.8	0.98654
1355.0	0.98671
1355.2	0.98689
1355.4	0.98706
1355.6	0.98724
1355.8	0.98742
1356.0	0.9876
1356.2	0.98777
1356.4	0.98795
1356.6	0.98813
1356.8	0.98831
1357.0	0.98848
1357.2	0.98866
1357.4	0.98884
1357.6	0.98902
1357.8	0.98919
1358.0	0.98937
1358.2	0.98955
1358.4	0.98973
1358.6	0.9899
1358.8	0.99008
1359.0	0.99026
1359.2	0.99044
1359.4	0.99061
1359.6	0.99079
1359.8	0.99097
1360.0	0.99115
1360.2	0.99122
1360.4	0.99129
1360.6	0.99137
1360.8	0.99144
1361.0	0.99152
1361.2	0.99159
1361.4	0.99167
1361.6	0.99174
1361.8	0.99182
1362.0	0.99189
1362.2	0.99197
1362.4	0.99204
1362.6	0.99212
1362.8	0.99219
1363.0	0.99227
1363.2	0.99234
1363.4	0.99241
1363.6	0.99249
1363.8	0.99256
1364.0	0.99264
1364.2	0.99271
1364.4	0.99279
1364.6	0.99286
1364.8	0.99294
1365.0	0.99301
1365.2	0.99265
1365.4	0.99229
1365.6	0.99194
1365.8	0.99158
1366.0	0.99122
1366.2	0.99086
1366.4	0.9905
1366.6	0.99014
1366.8	0.98979
1367.0	0.98943
1367.2	0.98907
1367.4	0.98871
1367.6	0.98835
1367.8	0.98799
1368.0	0.98763
1368.2	0.98728
1368.4	0.98692
1368.6	0.98656
1368.8	0.9862
1369.0	0.98584
1369.2	0.98548
1369.4	0.98513
1369.6	0.98477
1369.8	0.98441
1370.0	0.98405
1370.2	0.98386
1370.4	0.98366
1370.6	0.98347
1370.8	0.98327
1371.0	0.98308
1371.2	0.98288
1371.4	0.98269
1371.6	0.98249
1371.8	0.9823
1372.0	0.9821
1372.2	0.98191
1372.4	0.98171
1372.6	0.98152
1372.8	0.98132
1373.0	0.98113
1373.2	0.98093
1373.4	0.98074
1373.6	0.98055
1373.8	0.98035
1374.0	0.98016
1374.2	0.97996
1374.4	0.97977
1374.6	0.97957
1374.8	0.97938
1375.0	0.97918
1375.2	0.97921
1375.4	0.97924
1375.6	0.97926
1375.8	0.97929
1376.0	0.97931
1376.2	0.97934
1376.4	0.97937
1376.6	0.97939
1376.8	0.97942
1377.0	0.97945
1377.2	0.97947
1377.4	0.9795
1377.6	0.97953
1377.8	0.97955
1378.0	0.97958
1378.2	0.97961
1378.4	0.97963
1378.6	0.97966
1378.8	0.97968
1379.0	0.97971
1379.2	0.97974
1379.4	0.97976
1379.6	0.97979
1379.8	0.97982
1380.0	0.97984
1380.2	0.97977
1380.4	0.9797
1380.6	0.97962
1380.8	0.97955
1381.0	0.97948
1381.2	0.9794
1381.4	0.97933
1381.6	0.97925
1381.8	0.97918
1382.0	0.97911
1382.2	0.97903
1382.4	0.97896
1382.6	0.97889
1382.8	0.97881
1383.0	0.97874
1383.2	0.97867
1383.4	0.97859
1383.6	0.97852
1383.8	0.97844
1384.0	0.97837
1384.2	0.9783
1384.4	0.97822
1384.6	0.97815
1384.8	0.97808
1385.0	0.978
1385.2	0.97823
1385.4	0.97845
1385.6	0.97868
1385.8	0.97891
1386.0	0.97913
1386.2	0.97936
1386.4	0.97958
1386.6	0.97981
1386.8	0.98004
1387.0	0.98026
1387.2	0.98049
1387.4	0.98071
1387.6	0.98094
1387.8	0.98117
1388.0	0.98139
1388.2	0.98162
1388.4	0.98184
1388.6	0.98207
1388.8	0.9823
1389.0	0.98252
1389.2	0.98275
1389.4	0.98297
1389.6	0.9832
1389.8	0.98342
1390.0	0.98365
1390.2	0.98371
1390.4	0.98377
1390.6	0.98383
1390.8	0.98389
1391.0	0.98396
1391.2	0.98402
1391.4	0.98408
1391.6	0.98414
1391.8	0.9842
1392.0	0.98426
1392.2	0.98432
1392.4	0.98438
1392.6	0.98444
1392.8	0.98451
1393.0	0.98457
1393.2	0.98463
1393.4	0.98469
1393.6	0.98475
1393.8	0.98481
1394.0	0.98487
1394.2	0.98493
1394.4	0.98499
1394.6	0.98506
1394.8	0.98512
1395.0	0.98518
1395.2	0.98487
1395.4	0.98457
1395.6	0.98427
1395.8	0.98397
1396.0	0.98366
1396.2	0.98336
1396.4	0.98306
1396.6	0.98275
1396.8	0.98245
1397.0	0.98215
1397.2	0.98185
1397.4	0.98154
1397.6	0.98124
1397.8	0.98094
1398.0	0.98063
1398.2	0.98033
1398.4	0.98003
1398.6	0.97973
1398.8	0.97942
1399.0	0.97912
1399.2	0.97882
1399.4	0.97851
1399.6	0.97821
1399.8	0.97791
1400.0	0.97761
1400.2	0.97772
1400.4	0.97783
1400.6	0.97794
1400.8	0.97806
1401.0	0.97817
1401.2	0.97828
1401.4	0.9784
1401.6	0.97851
1401.8	0.97862
1402.0	0.97874
1402.2	0.97885
1402.4	0.97896
1402.6	0.97907
1402.8	0.97919
1403.0	0.9793
1403.2	0.97941
1403.4	0.97953
1403.6	0.97964
1403.8	0.97975
1404.0	0.97986
1404.2	0.97998
1404.4	0.98009
1404.6	0.9802
1404.8	0.98032
1405.0	0.98043
1405.2	0.98044
1405.4	0.98046
1405.6	0.98048
1405.8	0.98049
1406.0	0.98051
1406.2	0.98052
1406.4	0.98054
1406.6	0.98055
1406.8	0.98057
1407.0	0.98059
1407.2	0.9806
1407.4	0.98062
1407.6	0.98063
1407.8	0.98065
1408.0	0.98067
1408.2	0.98068
1408.4	0.9807
1408.6	0.98071
1408.8	0.98073
1409.0	0.98074
1409.2	0.98076
1409.4	0.98078
1409.6	0.98079
1409.8	0.98081
1410.0	0.98082
1410.2	0.98093
1410.4	0.98103
1410.6	0.98114
1410.8	0.98124
1411.0	0.98135
1411.2	0.98145
1411.4	0.98156
1411.6	0.98166
1411.8	0.98177
1412.0	0.98187
1412.2	0.98198
1412.4	0.98208
1412.6	0.98219
1412.8	0.9823
1413.0	0.9824
1413.2	0.98251
1413.4	0.98261
1413.6	0.98272
1413.8	0.98282
1414.0	0.98293
1414.2	0.98303
1414.4	0.98314
1414.6	0.98324
1414.8	0.98335
1415.0	0.98345
1415.2	0.9835
1415.4	0.98354
1415.6	0.98359
1415.8	0.98363
1416.0	0.98368
1416.2	0.98373
1416.4	0.98377
1416.6	0.98382
1416.8	0.98386
1417.0	0.98391
1417.2	0.98396
1417.4	0.984
1417.6	0.98405
1417.8	0.98409
1418.0	0.98414
1418.2	0.98418
1418.4	0.98423
1418.6	0.98428
1418.8	0.98432
1419.0	0.98437
1419.2	0.98441
1419.4	0.98446
1419.6	0.98451
1419.8	0.98455
1420.0	0.9846
1420.2	0.9845
1420.4	0.98441
1420.6	0.98431
1420.8	0.98421
1421.0	0.98412
1421.2	0.98402
1421.4	0.98393
1421.6	0.98383
1421.8	0.98374
1422.0	0.98364
1422.2	0.98355
1422.4	0.98345
1422.6	0.98335
1422.8	0.98326
1423.0	0.98316
1423.2	0.98307
1423.4	0.98297
1423.6	0.98288
1423.8	0.98278
1424.0	0.98268
1424.2	0.98259
1424.4	0.98249
1424.6	0.9824
1424.8	0.9823
1425.0	0.98221
1425.2	0.98235
1425.4	0.98249
1425.6	0.98264
1425.8	0.98278
1426.0	0.98293
1426.2	0.98307
1426.4	0.98321
1426.6	0.98336
1426.8	0.9835
1427.0	0.98365
1427.2	0.98379
1427.4	0.98393
1427.6	0.98408
1427.8	0.98422
1428.0	0.98437
1428.2	0.98451
1428.4	0.98465
1428.6	0.9848
1428.8	0.98494
1429.0	0.98508
1429.2	0.98523
1429.4	0.98537
1429.6	0.98552
1429.8	0.98566
1430.0	0.9858
1430.2	0.9857
1430.4	0.9856
1430.6	0.9855
1430.8	0.9854
1431.0	0.9853
1431.2	0.9852
1431.4	0.9851
1431.6	0.985
1431.8	0.9849
1432.0	0.9848
1432.2	0.9847
1432.4	0.9846
1432.6	0.9845
1432.8	0.9844
1433.0	0.9843
1433.2	0.9842
1433.4	0.9841
1433.6	0.984
1433.8	0.9839
1434.0	0.9838
1434.2	0.9837
1434.4	0.9836
1434.6	0.9835
1434.8	0.9834
1435.0	0.9833
1435.2	0.98338
1435.4	0.98345
1435.6	0.98353
1435.8	0.98361
1436.0	0.98369
1436.2	0.98377
1436.4	0.98385
1436.6	0.98393
1436.8	0.98401
1437.0	0.98409
1437.2	0.98417
1437.4	0.98425
1437.6	0.98433
1437.8	0.98441
1438.0	0.98449
1438.2	0.98457
1438.4	0.98465
1438.6	0.98473
1438.8	0.98481
1439.0	0.98489
1439.2	0.98497
1439.4	0.98505
1439.6	0.98513
1439.8	0.98521
1440.0	0.98529
1440.2	0.9851
1440.4	0.98492
1440.6	0.98473
1440.8	0.98454
1441.0	0.98435
1441.2	0.98417
1441.4	0.98398
1441.6	0.98379
1441.8	0.9836
1442.0	0.98342
1442.2	0.98323
1442.4	0.98304
1442.6	0.98286
1442.8	0.98267
1443.0	0.98248
1443.2	0.98229
1443.4	0.98211
1443.6	0.98192
1443.8	0.98173
1444.0	0.98154
1444.2	0.98136
1444.4	0.98117
1444.6	0.98098
1444.8	0.9808
1445.0	0.98061
1445.2	0.9809
1445.4	0.98118
1445.6	0.98147
1445.8	0.98176
1446.0	0.98205
1446.2	0.98233
1446.4	0.98262
1446.6	0.98291
1446.8	0.9832
1447.0	0.98348
1447.2	0.98377
1447.4	0.98406
1447.6	0.98435
1447.8	0.98463
1448.0	0.98492
1448.2	0.98521
1448.4	0.9855
1448.6	0.98578
1448.8	0.98607
1449.0	0.98636
1449.2	0.98665
1449.4	0.98693
1449.6	0.98722
1449.8	0.98751
1450.0	0.9878
1450.2	0.98804
1450.4	0.98828
1450.6	0.98852
1450.8	0.98876
1451.0	0.989
1451.2	0.98924
1451.4	0.98948
1451.6	0.98972
1451.8	0.98996
1452.0	0.9902
1452.2	0.99044
1452.4	0.99069
1452.6	0.99093
1452.8	0.99117
1453.0	0.99141
1453.2	0.99165
1453.4	0.99189
1453.6	0.99213
1453.8	0.99237
1454.0	0.99261
1454.2	0.99285
1454.4	0.99309
1454.6	0.99333
1454.8	0.99358
1455.0	0.99382
1455.2	0.9938
1455.4	0.99379
1455.6	0.99377
1455.8	0.99376
1456.0	0.99374
1456.2	0.99373
1456.4	0.99371
1456.6	0.9937
1456.8	0.99368
1457.0	0.99367
1457.2	0.99365
1457.4	0.99364
1457.6	0.99362
1457.8	0.99361
1458.0	0.99359
1458.2	0.99358
1458.4	0.99356
1458.6	0.99355
1458.8	0.99353
1459.0	0.99352
1459.2	0.9935
1459.4	0.99349
1459.6	0.99348
1459.8	0.99346
1460.0	0.99345
1460.2	0.99306
1460.4	0.99268
1460.6	0.9923
1460.8	0.99192
1461.0	0.99154
1461.2	0.99116
1461.4	0.99078
1461.6	0.99039
1461.8	0.99001
1462.0	0.98963
1462.2	0.98925
1462.4	0.98887
1462.6	0.98849
1462.8	0.98811
1463.0	0.98773
1463.2	0.98734
1463.4	0.98696
1463.6	0.98658
1463.8	0.9862
1464.0	0.98582
1464.2	0.98544
1464.4	0.98506
1464.6	0.98467
1464.8	0.98429
1465.0	0.98391
1465.2	0.98383
1465.4	0.98375
1465.6	0.98366
1465.8	0.98358
1466.0	0.9835
1466.2	0.98341
1466.4	0.98333
1466.6	0.98325
1466.8	0.98316
1467.0	0.98308
1467.2	0.983
1467.4	0.98291
1467.6	0.98283
1467.8	0.98274
1468.0	0.98266
1468.2	0.98258
1468.4	0.98249
1468.6	0.98241
1468.8	0.98233
1469.0	0.98224
1469.2	0.98216
1469.4	0.98208
1469.6	0.98199
1469.8	0.98191
1470.0	0.98183
1470.2	0.98157
1470.4	0.98132
1470.6	0.98106
1470.8	0.98081
1471.0	0.98055
1471.2	0.9803
1471.4	0.98004
1471.6	0.97979
1471.8	0.97953
1472.0	0.97928
1472.2	0.97902
1472.4	0.97877
1472.6	0.97851
1472.8	0.97826
1473.0	0.978
1473.2	0.97775
1473.4	0.97749
1473.6	0.97724
1473.8	0.97698
1474.0	0.97673
1474.2	0.97647
1474.4	0.97622
1474.6	0.97596
1474.8	0.97571
1475.0	0.97545
1475.2	0.97571
1475.4	0.97598
1475.6	0.97624
1475.8	0.9765
1476.0	0.97676
1476.2	0.97702
1476.4	0.97728
1476.6	0.97754
1476.8	0.9778
1477.0	0.97806
1477.2	0.97832
1477.4	0.97858
1477.6	0.97884
1477.8	0.9791
1478.0	0.97936
1478.2	0.97962
1478.4	0.97988
1478.6	0.98014
1478.8	0.9804
1479.0	0.98066
1479.2	0.98092
1479.4	0.98118
1479.6	0.98144
1479.8	0.9817
1480.0	0.98196
1480.2	0.98197
1480.4	0.98197
1480.6	0.98198
1480.8	0.98198
1481.0	0.98199
1481.2	0.982
1481.4	0.982
1481.6	0.98201
1481.8	0.98202
1482.0	0.98202
1482.2	0.98203
1482.4	0.98204
1482.6	0.98204
1482.8	0.98205
1483.0	0.98205
1483.2	0.98206
1483.4	0.98207
1483.6	0.98207
1483.8	0.98208
1484.0	0.98209
1484.2	0.98209
1484.4	0.9821
1484.6	0.9821
1484.8	0.98211
1485.0	0.98212
1485.2	0.98208
1485.4	0.98204
1485.6	0.98201
1485.8	0.98197
1486.0	0.98193
1486.2	0.9819
1486.4	0.98186
1486.6	0.98182
1486.8	0.98179
1487.0	0.98175
1487.2	0.98171
1487.4	0.98168
1487.6	0.98164
1487.8	0.9816
1488.0	0.98157
1488.2	0.98153
1488.4	0.98149
1488.6	0.98146
1488.8	0.98142
1489.0	0.98138
1489.2	0.98135
1489.4	0.98131
1489.6	0.98127
1489.8	0.98124
1490.0	0.9812
1490.2	0.98129
1490.4	0.98138
1490.6	0.98147
1490.8	0.98156
1491.0	0.98166
1491.2	0.98175
1491.4	0.98184
1491.6	0.98193
1491.8	0.98202
1492.0	0.98211
1492.2	0.9822
1492.4	0.98229
1492.6	0.98238
1492.8	0.98247
1493.0	0.98257
1493.2	0.98266
1493.4	0.98275
1493.6	0.98284
1493.8	0.98293
1494.0	0.98302
1494.2	0.98311
1494.4	0.9832
1494.6	0.98329
1494.8	0.98339
1495.0	0.98348
1495.2	0.98355
1495.4	0.98362
1495.6	0.9837
1495.8	0.98377
1496.0	0.98385
1496.2	0.98392
1496.4	0.98399
1496.6	0.98407
1496.8	0.98414
1497.0	0.98421
1497.2	0.98429
1497.4	0.98436
1497.6	0.98444
1497.8	0.98451
1498.0	0.98458
1498.2	0.98466
1498.4	0.98473
1498.6	0.98481
1498.8	0.98488
1499.0	0.98495
1499.2	0.98503
1499.4	0.9851
1499.6	0.98517
1499.8	0.98525
1500.0	0.98532
1500.2	0.98524
1500.4	0.98516
1500.6	0.98508
1500.8	0.985
1501.0	0.98492
1501.2	0.98484
1501.4	0.98476
1501.6	0.98468
1501.8	0.98459
1502.0	0.98451
1502.2	0.98443
1502.4	0.98435
1502.6	0.98427
1502.8	0.98419
1503.0	0.98411
1503.2	0.98403
1503.4	0.98395
1503.6	0.98387
1503.8	0.98379
1504.0	0.98371
1504.2	0.98362
1504.4	0.98354
1504.6	0.98346
1504.8	0.98338
1505.0	0.9833
1505.2	0.9835
1505.4	0.9837
1505.6	0.98391
1505.8	0.98411
1506.0	0.98431
1506.2	0.98451
1506.4	0.98471
1506.6	0.98491
1506.8	0.98512
1507.0	0.98532
1507.2	0.98552
1507.4	0.98572
1507.6	0.98592
1507.8	0.98612
1508.0	0.98633
1508.2	0.98653
1508.4	0.98673
1508.6	0.98693
1508.8	0.98713
1509.0	0.98733
1509.2	0.98754
1509.4	0.98774
1509.6	0.98794
1509.8	0.98814
1510.0	0.98834
1510.2	0.98817
1510.4	0.988
1510.6	0.98783
1510.8	0.98766
1511.0	0.98749
1511.2	0.98732
1511.4	0.98715
1511.6	0.98698
1511.8	0.98681
1512.0	0.98664
1512.2	0.98647
1512.4	0.9863
1512.6	0.98613
1512.8	0.98596
1513.0	0.98579
1513.2	0.98562
1513.4	0.98545
1513.6	0.98528
1513.8	0.98511
1514.0	0.98494
1514.2	0.98477
1514.4	0.9846
1514.6	0.98443
1514.8	0.98426
1515.0	0.98408
1515.2	0.98406
1515.4	0.98404
1515.6	0.98401
1515.8	0.98399
1516.0	0.98397
1516.2	0.98394
1516.4	0.98392
1516.6	0.98389
1516.8	0.98387
1517.0	0.98385
1517.2	0.98382
1517.4	0.9838
1517.6	0.98378
1517.8	0.98375
1518.0	0.98373
1518.2	0.98371
1518.4	0.98368
1518.6	0.98366
1518.8	0.98363
1519.0	0.98361
1519.2	0.98359
1519.4	0.98356
1519.6	0.98354
1519.8	0.98352
1520.0	0.98349
1520.2	0.98325
1520.4	0.983
1520.6	0.98276
1520.8	0.98251
1521.0	0.98227
1521.2	0.98202
1521.4	0.98178
1521.6	0.98153
1521.8	0.98129
1522.0	0.98104
1522.2	0.9808
1522.4	0.98055
1522.6	0.98031
1522.8	0.98007
1523.0	0.97982
1523.2	0.97958
1523.4	0.97933
1523.6	0.97909
1523.8	0.97884
1524.0	0.9786
1524.2	0.97835
1524.4	0.97811
1524.6	0.97786
1524.8	0.97762
1525.0	0.97737
1525.2	0.97742
1525.4	0.97747
1525.6	0.97752
1525.8	0.97757
1526.0	0.97762
1526.2	0.97767
1526.4	0.97772
1526.6	0.97777
1526.8	0.97782
1527.0	0.97786
1527.2	0.97791
1527.4	0.97796
1527.6	0.97801
1527.8	0.97806
1528.0	0.97811
1528.2	0.97816
1528.4	0.97821
1528.6	0.97826
1528.8	0.97831
1529.0	0.97836
1529.2	0.9784
1529.4	0.97845
1529.6	0.9785
1529.8	0.97855
1530.0	0.9786
1530.2	0.97882
1530.4	0.97904
1530.6	0.97926
1530.8	0.97948
1531.0	0.97971
1531.2	0.97993
1531.4	0.98015
1531.6	0.98037
1531.8	0.98059
1532.0	0.98081
1532.2	0.98103
1532.4	0.98125
1532.6	0.98147
1532.8	0.98169
1533.0	0.98192
1533.2	0.98214
1533.4	0.98236
1533.6	0.98258
1533.8	0.9828
1534.0	0.98302
1534.2	0.98324
1534.4	0.98346
1534.6	0.98368
1534.8	0.9839
1535.0	0.98413
1535.2	0.98419
1535.4	0.98426
1535.6	0.98433
1535.8	0.9844
1536.0	0.98447
1536.2	0.98454
1536.4	0.98461
1536.6	0.98468
1536.8	0.98475
1537.0	0.98481
1537.2	0.98488
1537.4	0.98495
1537.6	0.98502
1537.8	0.98509
1538.0	0.98516
1538.2	0.98523
1538.4	0.9853
1538.6	0.98537
1538.8	0.98544
1539.0	0.9855
1539.2	0.98557
1539.4	0.98564
1539.6	0.98571
1539.8	0.98578
1540.0	0.98585
1540.2	0.98568
1540.4	0.98551
1540.6	0.98534
1540.8	0.98517
1541.0	0.985
1541.2	0.98483
1541.4	0.98466
1541.6	0.98449
1541.8	0.98433
1542.0	0.98416
1542.2	0.98399
1542.4	0.98382
1542.6	0.98365
1542.8	0.98348
1543.0	0.98331
1543.2	0.98314
1543.4	0.98297
1543.6	0.9828
1543.8	0.98263
1544.0	0.98246
1544.2	0.98229
1544.4	0.98212
1544.6	0.98196
1544.8	0.98179
1545.0	0.98162
1545.2	0.98168
1545.4	0.98174
1545.6	0.9818
1545.8	0.98186
1546.0	0.98192
1546.2	0.98198
1546.4	0.98205
1546.6	0.98211
1546.8	0.98217
1547.0	0.98223
1547.2	0.98229
1547.4	0.98235
1547.6	0.98241
1547.8	0.98247
1548.0	0.98253
1548.2	0.9826
1548.4	0.98266
1548.6	0.98272
1548.8	0.98278
1549.0	0.98284
1549.2	0.9829
1549.4	0.98296
1549.6	0.98302
1549.8	0.98309
1550.0	0.98315
1550.2	0.98303
1550.4	0.98292
1550.6	0.9828
1550.8	0.98268
1551.0	0.98257
1551.2	0.98245
1551.4	0.98234
1551.6	0.98222
1551.8	0.9821
1552.0	0.98199
1552.2	0.98187
1552.4	0.98176
1552.6	0.98164
1552.8	0.98152
1553.0	0.98141
1553.2	0.98129
1553.4	0.98118
1553.6	0.98106
1553.8	0.98094
1554.0	0.98083
1554.2	0.98071
1554.4	0.9806
1554.6	0.98048
1554.8	0.98036
1555.0	0.98025
1555.2	0.98037
1555.4	0.98049
1555.6	0.98061
1555.8	0.98073
1556.0	0.98085
1556.2	0.98097
1556.4	0.9811
1556.6	0.98122
1556.8	0.98134
1557.0	0.98146
1557.2	0.98158
1557.4	0.9817
1557.6	0.98182
1557.8	0.98194
1558.0	0.98206
1558.2	0.98219
1558.4	0.98231
1558.6	0.98243
1558.8	0.98255
1559.0	0.98267
1559.2	0.98279
1559.4	0.98291
1559.6	0.98303
1559.8	0.98315
1560.0	0.98327
1560.2	0.98334
1560.4	0.9834
1560.6	0.98346
1560.8	0.98353
1561.0	0.98359
1561.2	0.98365
1561.4	0.98372
1561.6	0.98378
1561.8	0.98384
1562.0	0.98391
1562.2	0.98397
1562.4	0.98403
1562.6	0.9841
1562.8	0.98416
1563.0	0.98422
1563.2	0.98429
1563.4	0.98435
1563.6	0.98441
1563.8	0.98448
1564.0	0.98454
1564.2	0.9846
1564.4	0.98467
1564.6	0.98473
1564.8	0.98479
1565.0	0.98486
1565.2	0.98478
1565.4	0.98469
1565.6	0.98461
1565.8	0.98453
1566.0	0.98445
1566.2	0.98437
1566.4	0.98429
1566.6	0.98421
1566.8	0.98412
1567.0	0.98404
1567.2	0.98396
1567.4	0.98388
1567.6	0.9838
1567.8	0.98372
1568.0	0.98363
1568.2	0.98355
1568.4	0.98347
1568.6	0.98339
1568.8	0.98331
1569.0	0.98323
1569.2	0.98315
1569.4	0.98306
1569.6	0.98298
1569.8	0.9829
1570.0	0.98282
1570.2	0.98275
1570.4	0.98269
1570.6	0.98262
1570.8	0.98255
1571.0	0.98248
1571.2	0.98242
1571.4	0.98235
1571.6	0.98228
1571.8	0.98222
1572.0	0.98215
1572.2	0.98208
1572.4	0.98202
1572.6	0.98195
1572.8	0.98188
1573.0	0.98182
1573.2	0.98175
1573.4	0.98168
1573.6	0.98162
1573.8	0.98155
1574.0	0.98148
1574.2	0.98141
1574.4	0.98135
1574.6	0.98128
1574.8	0.98121
1575.0	0.98115
1575.2	0.98113
1575.4	0.98111
1575.6	0.98109
1575.8	0.98107
1576.0	0.98105
1576.2	0.98103
1576.4	0.98101
1576.6	0.98099
1576.8	0.98098
1577.0	0.98096
1577.2	0.98094
1577.4	0.98092
1577.6	0.9809
1577.8	0.98088
1578.0	0.98086
1578.2	0.98084
1578.4	0.98082
1578.6	0.9808
1578.8	0.98079
1579.0	0.98077
1579.2	0.98075
1579.4	0.98073
1579.6	0.98071
1579.8	0.98069
1580.0	0.98067
1580.2	0.98079
1580.4	0.98091
1580.6	0.98102
1580.8	0.98114
1581.0	0.98126
1581.2	0.98138
1581.4	0.9815
1581.6	0.98161
1581.8	0.98173
1582.0	0.98185
1582.2	0.98197
1582.4	0.98209
1582.6	0.9822
1582.8	0.98232
1583.0	0.98244
1583.2	0.98256
1583.4	0.98267
1583.6	0.98279
1583.8	0.98291
1584.0	0.98303
1584.2	0.98315
1584.4	0.98326
1584.6	0.98338
1584.8	0.9835
1585.0	0.98362
1585.2	0.98355
1585.4	0.98349
1585.6	0.98342
1585.8	0.98336
1586.0	0.98329
1586.2	0.98323
1586.4	0.98316
1586.6	0.9831
1586.8	0.98303
1587.0	0.98297
1587.2	0.9829
1587.4	0.98284
1587.6	0.98277
1587.8	0.98271
1588.0	0.98264
1588.2	0.98258
1588.4	0.98251
1588.6	0.98245
1588.8	0.98238
1589.0	0.98232
1589.2	0.98225
1589.4	0.98219
1589.6	0.98212
1589.8	0.98206
1590.0	0.98199
1590.2	0.98202
1590.4	0.98204
1590.6	0.98206
1590.8	0.98209
1591.0	0.98211
1591.2	0.98214
1591.4	0.98216
1591.6	0.98219
1591.8	0.98221
1592.0	0.98223
1592.2	0.98226
1592.4	0.98228
1592.6	0.98231
1592.8	0.98233
1593.0	0.98235
1593.2	0.98238
1593.4	0.9824
1593.6	0.98243
1593.8	0.98245
1594.0	0.98248
1594.2	0.9825
1594.4	0.98252
1594.6	0.98255
1594.8	0.98257
1595.0	0.9826
1595.2	0.9825
1595.4	0.9824
1595.6	0.9823
1595.8	0.9822
1596.0	0.98209
1596.2	0.98199
1596.4	0.98189
1596.6	0.98179
1596.8	0.98169
1597.0	0.98159
1597.2	0.98149
1597.4	0.98139
1597.6	0.98129
1597.8	0.98119
1598.0	0.98109
1598.2	0.98099
1598.4	0.98089
1598.6	0.98079
1598.8	0.98069
1599.0	0.98059
1599.2	0.98049
1599.4	0.98039
1599.6	0.98029
1599.8	0.98019
1600.0	0.98009
1600.2	0.98023
1600.4	0.98037
1600.6	0.98051
1600.8	0.98065
1601.0	0.98079
1601.2	0.98093
1601.4	0.98107
1601.6	0.98121
1601.8	0.98135
1602.0	0.98149
1602.2	0.98163
1602.4	0.98177
1602.6	0.98191
1602.8	0.98205
1603.0	0.98219
1603.2	0.98233
1603.4	0.98247
1603.6	0.98261
1603.8	0.98275
1604.0	0.98289
1604.2	0.98303
1604.4	0.98317
1604.6	0.98331
1604.8	0.98345
1605.0	0.98359
1605.2	0.98366
1605.4	0.98372
1605.6	0.98379
1605.8	0.98386
1606.0	0.98392
1606.2	0.98399
1606.4	0.98406
1606.6	0.98412
1606.8	0.98419
1607.0	0.98425
1607.2	0.98432
1607.4	0.98439
1607.6	0.98445
1607.8	0.98452
1608.0	0.98459
1608.2	0.98465
1608.4	0.98472
1608.6	0.98478
1608.8	0.98485
1609.0	0.98492
1609.2	0.98498
1609.4	0.98505
1609.6	0.98512
1609.8	0.98518
1610.0	0.98525
1610.2	0.98509
1610.4	0.98492
1610.6	0.98476
1610.8	0.9846
1611.0	0.98444
1611.2	0.98428
1611.4	0.98411
1611.6	0.98395
1611.8	0.98379
1612.0	0.98363
1612.2	0.98347
1612.4	0.9833
1612.6	0.98314
1612.8	0.98298
1613.0	0.98282
1613.2	0.98266
1613.4	0.98249
1613.6	0.98233
1613.8	0.98217
1614.0	0.98201
1614.2	0.98185
1614.4	0.98168
1614.6	0.98152
1614.8	0.98136
1615.0	0.9812
1615.2	0.98097
1615.4	0.98074
1615.6	0.98051
1615.8	0.98028
1616.0	0.98004
1616.2	0.97981
1616.4	0.97958
1616.6	0.97935
1616.8	0.97912
1617.0	0.97889
1617.2	0.97866
1617.4	0.97843
1617.6	0.9782
1617.8	0.97797
1618.0	0.97774
1618.2	0.97751
1618.4	0.97728
1618.6	0.97705
1618.8	0.97682
1619.0	0.97659
1619.2	0.97636
1619.4	0.97613
1619.6	0.9759
1619.8	0.97567
1620.0	0.97544
1620.2	0.97556
1620.4	0.97569
1620.6	0.97582
1620.8	0.97594
1621.0	0.97607
1621.2	0.9762
1621.4	0.97633
1621.6	0.97645
1621.8	0.97658
1622.0	0.97671
1622.2	0.97683
1622.4	0.97696
1622.6	0.97709
1622.8	0.97722
1623.0	0.97734
1623.2	0.97747
1623.4	0.9776
1623.6	0.97772
1623.8	0.97785
1624.0	0.97798
1624.2	0.97811
1624.4	0.97823
1624.6	0.97836
1624.8	0.97849
1625.0	0.97861
1625.2	0.97881
1625.4	0.979
1625.6	0.97919
1625.8	0.97938
1626.0	0.97957
1626.2	0.97976
1626.4	0.97995
1626.6	0.98014
1626.8	0.98033
1627.0	0.98052
1627.2	0.98071
1627.4	0.9809
1627.6	0.9811
1627.8	0.98129
1628.0	0.98148
1628.2	0.98167
1628.4	0.98186
1628.6	0.98205
1628.8	0.98224
1629.0	0.98243
1629.2	0.98262
1629.4	0.98281
1629.6	0.983
1629.8	0.98319
1630.0	0.98339
1630.2	0.98344
1630.4	0.98349
1630.6	0.98354
1630.8	0.98358
1631.0	0.98363
1631.2	0.98368
1631.4	0.98373
1631.6	0.98378
1631.8	0.98383
1632.0	0.98388
1632.2	0.98393
1632.4	0.98398
1632.6	0.98403
1632.8	0.98408
1633.0	0.98413
1633.2	0.98418
1633.4	0.98423
1633.6	0.98428
1633.8	0.98433
1634.0	0.98438
1634.2	0.98443
1634.4	0.98448
1634.6	0.98453
1634.8	0.98458
1635.0	0.98463
1635.2	0.9841
1635.4	0.98358
1635.6	0.98305
1635.8	0.98252
1636.0	0.982
1636.2	0.98147
1636.4	0.98094
1636.6	0.98041
1636.8	0.97989
1637.0	0.97936
1637.2	0.97883
1637.4	0.97831
1637.6	0.97778
1637.8	0.97725
1638.0	0.97673
1638.2	0.9762
1638.4	0.97567
1638.6	0.97514
1638.8	0.97462
1639.0	0.97409
1639.2	0.97356
1639.4	0.97304
1639.6	0.97251
1639.8	0.97198
1640.0	0.97146
1640.2	0.9717
1640.4	0.97195
1640.6	0.9722
1640.8	0.97244
1641.0	0.97269
1641.2	0.97294
1641.4	0.97319
1641.6	0.97343
1641.8	0.97368
1642.0	0.97393
1642.2	0.97417
1642.4	0.97442
1642.6	0.97467
1642.8	0.97492
1643.0	0.97516
1643.2	0.97541
1643.4	0.97566
1643.6	0.9759
1643.8	0.97615
1644.0	0.9764
1644.2	0.97665
1644.4	0.97689
1644.6	0.97714
1644.8	0.97739
1645.0	0.97763
1645.2	0.97767
1645.4	0.97771
1645.6	0.97774
1645.8	0.97778
1646.0	0.97782
1646.2	0.97785
1646.4	0.97789
1646.6	0.97793
1646.8	0.97797
1647.0	0.978
1647.2	0.97804
1647.4	0.97808
1647.6	0.97811
1647.8	0.97815
1648.0	0.97819
1648.2	0.97822
1648.4	0.97826
1648.6	0.9783
1648.8	0.97833
1649.0	0.97837
1649.2	0.97841
1649.4	0.97844
1649.6	0.97848
1649.8	0.97852
1650.0	0.97856